Subj,Block,Trial,ImageType,Image,Rating,RT
1,1,1,art,art_087.jpg,3,4.2813
1,2,100,art,art_087.jpg,5,1.9818
2,1,80,art,art_087.jpg,6,1.089
2,2,66,art,art_087.jpg,5,0.8327
3,1,62,art,art_087.jpg,2,0.8236
3,2,108,art,art_087.jpg,2,0.7521
4,1,2,art,art_087.jpg,6,1.7909
4,2,48,art,art_087.jpg,5,0.9163
5,1,54,art,art_087.jpg,1,1.1997
5,2,16,art,art_087.jpg,1,0.8024
6,1,94,art,art_087.jpg,6,0.6646
6,2,56,art,art_087.jpg,5,6.0831
7,1,93,art,art_087.jpg,2,0.8634
7,2,28,art,art_087.jpg,2,1.7228
8,1,82,art,art_087.jpg,2,0.776
8,2,17,art,art_087.jpg,2,0.8013
9,1,47,art,art_087.jpg,5,0.8891
9,2,80,art,art_087.jpg,6,0.8963
10,1,30,art,art_087.jpg,2,0.4313
10,2,63,art,art_087.jpg,1,0.4957
11,1,83,art,art_087.jpg,5,3.274
11,2,6,art,art_087.jpg,2,0.8709
12,1,104,art,art_087.jpg,3,0.5617
12,2,27,art,art_087.jpg,3,0.6666
13,1,96,art,art_087.jpg,7,0.8799
13,2,6,art,art_087.jpg,7,0.8245
14,1,104,art,art_087.jpg,5,0.6827
14,2,14,art,art_087.jpg,5,1.3689
15,1,60,art,art_087.jpg,5,0.6665
15,2,34,art,art_087.jpg,4,0.5727
16,1,76,art,art_087.jpg,4,0.6463
16,2,50,art,art_087.jpg,2,0.8175
17,1,47,art,art_087.jpg,6,0.832
17,2,71,art,art_087.jpg,7,0.6386
18,1,39,art,art_087.jpg,2,0.7872
18,2,63,art,art_087.jpg,1,1.1838
19,1,88,art,art_087.jpg,6,1.0085
19,2,37,art,art_087.jpg,6,0.5823
20,1,73,art,art_087.jpg,2,1.1456
20,2,22,art,art_087.jpg,4,0.777
21,1,82,art,art_087.jpg,5,0.9138
21,2,87,art,art_087.jpg,5,2.3703
22,1,23,art,art_087.jpg,4,0.5864
22,2,28,art,art_087.jpg,4,1.2779
23,1,105,art,art_087.jpg,6,1.0347
23,2,90,art,art_087.jpg,7,0.9053
24,1,20,art,art_087.jpg,5,0.5629
24,2,5,art,art_087.jpg,4,0.573
1,1,2,art,art_090.jpg,5,2.8339
1,2,58,art,art_090.jpg,6,0.8228
2,1,71,art,art_090.jpg,6,1.0849
2,2,63,art,art_090.jpg,5,0.7071
3,1,76,art,art_090.jpg,1,1.5758
3,2,109,art,art_090.jpg,1,0.818
4,1,1,art,art_090.jpg,6,1.0024
4,2,34,art,art_090.jpg,4,0.8873
5,1,88,art,art_090.jpg,3,0.8276
5,2,105,art,art_090.jpg,2,1.7303
6,1,5,art,art_090.jpg,7,1.0694
6,2,22,art,art_090.jpg,4,2.8834
7,1,39,art,art_090.jpg,1,0.7641
7,2,19,art,art_090.jpg,1,0.7525
8,1,91,art,art_090.jpg,3,0.9062
8,2,71,art,art_090.jpg,2,0.7384
9,1,23,art,art_090.jpg,7,0.4486
9,2,67,art,art_090.jpg,7,0.8304
10,1,43,art,art_090.jpg,4,0.6176
10,2,87,art,art_090.jpg,3,0.4427
11,1,94,art,art_090.jpg,2,0.7494
11,2,18,art,art_090.jpg,3,0.6817
12,1,92,art,art_090.jpg,3,1.0671
12,2,16,art,art_090.jpg,4,0.4975
13,1,22,art,art_090.jpg,7,0.8489
13,2,84,art,art_090.jpg,7,0.7223
14,1,26,art,art_090.jpg,5,0.5147
14,2,88,art,art_090.jpg,5,0.5279
15,1,78,art,art_090.jpg,6,0.856
15,2,10,art,art_090.jpg,5,0.5129
16,1,100,art,art_090.jpg,4,1.0169
16,2,32,art,art_090.jpg,5,1.0333
17,1,10,art,art_090.jpg,6,1.0825
17,2,83,art,art_090.jpg,6,0.8516
18,1,27,art,art_090.jpg,2,2.0915
18,2,100,art,art_090.jpg,3,0.8471
19,1,104,art,art_090.jpg,7,1.1374
19,2,43,art,art_090.jpg,6,0.7827
20,1,67,art,art_090.jpg,5,0.7941
20,2,6,art,art_090.jpg,5,0.6718
21,1,28,art,art_090.jpg,5,0.9315
21,2,51,art,art_090.jpg,6,0.9337
22,1,59,art,art_090.jpg,6,0.9537
22,2,82,art,art_090.jpg,7,1.2536
23,1,4,art,art_090.jpg,5,1.2193
23,2,67,art,art_090.jpg,6,0.6939
24,1,43,art,art_090.jpg,5,0.4689
24,2,106,art,art_090.jpg,5,2.108
1,1,3,art,art_105.jpg,2,0.9732
1,2,45,art,art_105.jpg,2,0.6832
2,1,37,art,art_105.jpg,5,0.939
2,2,108,art,art_105.jpg,4,0.7412
3,1,23,art,art_105.jpg,1,1.4619
3,2,59,art,art_105.jpg,2,0.7279
4,1,51,art,art_105.jpg,7,1.1177
4,2,87,art,art_105.jpg,4,0.4119
5,1,7,art,art_105.jpg,3,1.0082
5,2,25,art,art_105.jpg,2,0.6241
6,1,85,art,art_105.jpg,2,0.9535
6,2,103,art,art_105.jpg,4,2.2136
7,1,17,art,art_105.jpg,1,0.7856
7,2,39,art,art_105.jpg,1,0.7677
8,1,71,art,art_105.jpg,5,0.4971
8,2,93,art,art_105.jpg,5,0.5926
9,1,108,art,art_105.jpg,3,0.8517
9,2,99,art,art_105.jpg,5,1.0529
10,1,11,art,art_105.jpg,6,0.9783
10,2,2,art,art_105.jpg,7,0.7373
11,1,100,art,art_105.jpg,2,1.3755
11,2,98,art,art_105.jpg,1,0.8742
12,1,12,art,art_105.jpg,3,1.2183
12,2,10,art,art_105.jpg,4,1.3247
13,1,55,art,art_105.jpg,3,1.2886
13,2,39,art,art_105.jpg,1,0.9835
14,1,71,art,art_105.jpg,4,3.0731
14,2,55,art,art_105.jpg,5,1.0412
15,1,95,art,art_105.jpg,2,0.7559
15,2,69,art,art_105.jpg,4,0.5204
16,1,41,art,art_105.jpg,2,0.5879
16,2,15,art,art_105.jpg,1,0.5509
17,1,49,art,art_105.jpg,4,0.756
17,2,10,art,art_105.jpg,2,0.9052
18,1,100,art,art_105.jpg,3,1.1423
18,2,61,art,art_105.jpg,4,0.7214
19,1,72,art,art_105.jpg,6,0.8813
19,2,71,art,art_105.jpg,5,0.5388
20,1,39,art,art_105.jpg,6,0.6662
20,2,38,art,art_105.jpg,6,1.3798
21,1,35,art,art_105.jpg,6,1.5723
21,2,12,art,art_105.jpg,5,1.0281
22,1,98,art,art_105.jpg,7,0.9948
22,2,75,art,art_105.jpg,7,0.6134
23,1,65,art,art_105.jpg,2,1.435
23,2,25,art,art_105.jpg,2,0.6638
24,1,85,art,art_105.jpg,1,0.978
24,2,45,art,art_105.jpg,1,0.6954
1,1,4,art,art_074.jpg,6,2.6747
1,2,96,art,art_074.jpg,6,0.9955
2,1,103,art,art_074.jpg,3,0.83
2,2,57,art,art_074.jpg,3,1.5624
3,1,20,art,art_074.jpg,4,0.5945
3,2,85,art,art_074.jpg,1,1.2432
4,1,25,art,art_074.jpg,6,0.7506
4,2,90,art,art_074.jpg,4,0.3639
5,1,73,art,art_074.jpg,1,0.9841
5,2,34,art,art_074.jpg,2,0.6562
6,1,76,art,art_074.jpg,6,2.0147
6,2,37,art,art_074.jpg,6,1.3002
7,1,42,art,art_074.jpg,1,0.9275
7,2,103,art,art_074.jpg,1,1.5312
8,1,7,art,art_074.jpg,6,1.594
8,2,68,art,art_074.jpg,5,0.618
9,1,62,art,art_074.jpg,5,1.0504
9,2,26,art,art_074.jpg,6,1.6096
10,1,84,art,art_074.jpg,3,0.6016
10,2,48,art,art_074.jpg,4,4.655
11,1,80,art,art_074.jpg,1,0.7159
11,2,103,art,art_074.jpg,1,2.6607
12,1,7,art,art_074.jpg,6,1.0692
12,2,30,art,art_074.jpg,5,0.3606
13,1,72,art,art_074.jpg,1,0.8723
13,2,97,art,art_074.jpg,1,0.8289
14,1,13,art,art_074.jpg,2,0.648
14,2,38,art,art_074.jpg,2,1.3215
15,1,48,art,art_074.jpg,3,0.522
15,2,27,art,art_074.jpg,3,0.7141
16,1,83,art,art_074.jpg,3,0.644
16,2,62,art,art_074.jpg,1,1.4864
17,1,82,art,art_074.jpg,1,0.9475
17,2,80,art,art_074.jpg,1,0.8027
18,1,30,art,art_074.jpg,7,0.8259
18,2,28,art,art_074.jpg,7,0.8196
19,1,11,art,art_074.jpg,5,0.761
19,2,66,art,art_074.jpg,5,0.7155
20,1,44,art,art_074.jpg,7,1.1429
20,2,99,art,art_074.jpg,5,0.8825
21,1,19,art,art_074.jpg,5,1.465
21,2,73,art,art_074.jpg,6,0.9779
22,1,37,art,art_074.jpg,2,1.4814
22,2,91,art,art_074.jpg,3,1.2827
23,1,108,art,art_074.jpg,6,1.3342
23,2,43,art,art_074.jpg,3,0.7916
24,1,67,art,art_074.jpg,5,0.6581
24,2,2,art,art_074.jpg,6,0.5618
1,1,5,art,art_102.jpg,4,0.8547
1,2,90,art,art_102.jpg,3,0.8477
2,1,63,art,art_102.jpg,3,2.5945
2,2,17,art,art_102.jpg,3,0.7579
3,1,11,art,art_102.jpg,1,1.1308
3,2,65,art,art_102.jpg,1,0.9778
4,1,45,art,art_102.jpg,5,0.614
4,2,99,art,art_102.jpg,4,0.4979
5,1,53,art,art_102.jpg,4,0.9843
5,2,3,art,art_102.jpg,4,0.8663
6,1,107,art,art_102.jpg,2,0.6882
6,2,57,art,art_102.jpg,3,1.866
7,1,34,art,art_102.jpg,1,0.8468
7,2,4,art,art_102.jpg,1,1.4392
8,1,106,art,art_102.jpg,2,0.7303
8,2,76,art,art_102.jpg,2,0.5225
9,1,53,art,art_102.jpg,6,0.6
9,2,50,art,art_102.jpg,5,1.7138
10,1,60,art,art_102.jpg,5,0.8735
10,2,57,art,art_102.jpg,5,0.7042
11,1,65,art,art_102.jpg,5,1.0073
11,2,81,art,art_102.jpg,5,0.6031
12,1,29,art,art_102.jpg,4,0.5359
12,2,45,art,art_102.jpg,4,0.4719
13,1,70,art,art_102.jpg,6,1.0361
13,2,45,art,art_102.jpg,6,1.3104
14,1,65,art,art_102.jpg,5,0.8588
14,2,40,art,art_102.jpg,5,0.7708
15,1,86,art,art_102.jpg,5,0.6661
15,2,15,art,art_102.jpg,5,0.493
16,1,95,art,art_102.jpg,2,0.6976
16,2,24,art,art_102.jpg,2,0.687
17,1,2,art,art_102.jpg,3,1.8147
17,2,66,art,art_102.jpg,2,0.6799
18,1,44,art,art_102.jpg,1,0.8529
18,2,108,art,art_102.jpg,1,0.6978
19,1,33,art,art_102.jpg,3,1.0764
19,2,79,art,art_102.jpg,3,0.5524
20,1,31,art,art_102.jpg,3,0.8844
20,2,77,art,art_102.jpg,3,0.8007
21,1,56,art,art_102.jpg,5,1.1
21,2,80,art,art_102.jpg,3,0.6381
22,1,30,art,art_102.jpg,6,0.7286
22,2,54,art,art_102.jpg,5,0.6571
23,1,57,art,art_102.jpg,3,0.8914
23,2,75,art,art_102.jpg,2,3.091
24,1,35,art,art_102.jpg,1,1.2749
24,2,53,art,art_102.jpg,1,1.3644
1,1,6,art,art_100.jpg,3,0.862
1,2,55,art,art_100.jpg,5,2.8111
2,1,67,art,art_100.jpg,3,1.0719
2,2,81,art,art_100.jpg,3,0.9399
3,1,61,art,art_100.jpg,1,0.7443
3,2,91,art,art_100.jpg,2,0.794
4,1,19,art,art_100.jpg,6,0.9119
4,2,49,art,art_100.jpg,5,0.6782
5,1,14,art,art_100.jpg,1,0.8731
5,2,8,art,art_100.jpg,1,1.8416
6,1,102,art,art_100.jpg,6,1.2011
6,2,96,art,art_100.jpg,3,0.6824
7,1,18,art,art_100.jpg,1,0.4491
7,2,75,art,art_100.jpg,1,0.8956
8,1,35,art,art_100.jpg,1,0.784
8,2,92,art,art_100.jpg,1,0.732
9,1,64,art,art_100.jpg,4,1.2307
9,2,107,art,art_100.jpg,5,1.6161
10,1,3,art,art_100.jpg,3,0.6479
10,2,46,art,art_100.jpg,6,3.2223
11,1,26,art,art_100.jpg,2,1.4156
11,2,8,art,art_100.jpg,1,1.3791
12,1,102,art,art_100.jpg,2,0.6245
12,2,84,art,art_100.jpg,4,0.6731
13,1,51,art,art_100.jpg,1,1.0072
13,2,35,art,art_100.jpg,2,1.1771
14,1,75,art,art_100.jpg,2,0.8693
14,2,59,art,art_100.jpg,1,0.4918
15,1,35,art,art_100.jpg,5,0.6494
15,2,80,art,art_100.jpg,3,0.4955
16,1,30,art,art_100.jpg,2,0.6793
16,2,75,art,art_100.jpg,1,0.5528
17,1,14,art,art_100.jpg,2,1.291
17,2,86,art,art_100.jpg,2,1.7532
18,1,24,art,art_100.jpg,3,0.8053
18,2,96,art,art_100.jpg,2,1.0816
19,1,3,art,art_100.jpg,4,0.8198
19,2,78,art,art_100.jpg,4,0.5636
20,1,32,art,art_100.jpg,2,0.9929
20,2,107,art,art_100.jpg,1,3.2645
21,1,95,art,art_100.jpg,4,4.0334
21,2,106,art,art_100.jpg,2,0.8283
22,1,4,art,art_100.jpg,6,0.9483
22,2,15,art,art_100.jpg,6,0.5295
23,1,88,art,art_100.jpg,5,2.0896
23,2,46,art,art_100.jpg,2,0.752
24,1,64,art,art_100.jpg,1,1.8413
24,2,22,art,art_100.jpg,1,1.0342
1,1,7,art,art_089.jpg,3,1.2779
1,2,71,art,art_089.jpg,5,1.6529
2,1,70,art,art_089.jpg,6,1.5742
2,2,103,art,art_089.jpg,6,1.1295
3,1,78,art,art_089.jpg,1,2.7401
3,2,17,art,art_089.jpg,3,0.5692
4,1,93,art,art_089.jpg,4,0.56
4,2,32,art,art_089.jpg,5,0.5126
5,1,9,art,art_089.jpg,2,0.8924
5,2,31,art,art_089.jpg,2,1.2442
6,1,79,art,art_089.jpg,7,0.7148
6,2,101,art,art_089.jpg,6,0.8764
7,1,89,art,art_089.jpg,4,1.4393
7,2,7,art,art_089.jpg,4,0.5685
8,1,103,art,art_089.jpg,3,1.5052
8,2,21,art,art_089.jpg,3,1.2304
9,1,94,art,art_089.jpg,6,1.9036
9,2,34,art,art_089.jpg,7,0.8283
10,1,76,art,art_089.jpg,4,0.4367
10,2,16,art,art_089.jpg,2,1.1625
11,1,95,art,art_089.jpg,4,0.8715
11,2,105,art,art_089.jpg,2,1.1157
12,1,5,art,art_089.jpg,7,0.9507
12,2,15,art,art_089.jpg,5,0.7918
13,1,19,art,art_089.jpg,6,1.2258
13,2,42,art,art_089.jpg,6,2.1548
14,1,68,art,art_089.jpg,5,0.3926
14,2,91,art,art_089.jpg,4,4.0591
15,1,67,art,art_089.jpg,5,1.6007
15,2,7,art,art_089.jpg,6,0.7152
16,1,103,art,art_089.jpg,3,0.6284
16,2,43,art,art_089.jpg,4,0.5528
17,1,32,art,art_089.jpg,7,0.7725
17,2,47,art,art_089.jpg,3,0.7625
18,1,63,art,art_089.jpg,2,1.0584
18,2,78,art,art_089.jpg,1,1.8683
19,1,27,art,art_089.jpg,5,0.9578
19,2,54,art,art_089.jpg,5,0.6416
20,1,56,art,art_089.jpg,5,2.0525
20,2,83,art,art_089.jpg,6,5.0374
21,1,15,art,art_089.jpg,6,1.4521
21,2,67,art,art_089.jpg,6,0.9789
22,1,43,art,art_089.jpg,5,0.7591
22,2,95,art,art_089.jpg,4,0.6668
23,1,8,art,art_089.jpg,7,1.0753
23,2,9,art,art_089.jpg,6,1.0342
24,1,101,art,art_089.jpg,6,0.722
24,2,102,art,art_089.jpg,6,0.6971
1,1,8,art,art_003.jpg,4,1.8872
1,2,75,art,art_003.jpg,5,1.8578
2,1,92,art,art_003.jpg,4,1.2373
2,2,45,art,art_003.jpg,3,0.9185
3,1,34,art,art_003.jpg,1,1.2015
3,2,37,art,art_003.jpg,1,1.6979
4,1,73,art,art_003.jpg,3,1.0752
4,2,76,art,art_003.jpg,3,0.5728
5,1,22,art,art_003.jpg,2,0.8733
5,2,62,art,art_003.jpg,2,0.8075
6,1,48,art,art_003.jpg,1,0.9747
6,2,88,art,art_003.jpg,4,2.8814
7,1,100,art,art_003.jpg,4,0.699
7,2,25,art,art_003.jpg,4,1.663
8,1,85,art,art_003.jpg,3,1.0755
8,2,10,art,art_003.jpg,2,0.949
9,1,16,art,art_003.jpg,4,0.5738
9,2,36,art,art_003.jpg,5,0.8562
10,1,74,art,art_003.jpg,4,0.578
10,2,94,art,art_003.jpg,5,1.4672
11,1,73,art,art_003.jpg,1,0.715
11,2,10,art,art_003.jpg,1,1.8154
12,1,100,art,art_003.jpg,3,0.7062
12,2,37,art,art_003.jpg,3,0.6254
13,1,109,art,art_003.jpg,1,1.1684
13,2,82,art,art_003.jpg,1,0.9395
14,1,28,art,art_003.jpg,2,1.6416
14,2,1,art,art_003.jpg,2,1.1897
15,1,26,art,art_003.jpg,4,0.8102
15,2,103,art,art_003.jpg,3,0.5392
16,1,7,art,art_003.jpg,5,0.7105
16,2,84,art,art_003.jpg,4,1.9511
17,1,64,art,art_003.jpg,3,0.8131
17,2,58,art,art_003.jpg,5,0.7923
18,1,52,art,art_003.jpg,6,0.818
18,2,46,art,art_003.jpg,6,0.9209
19,1,75,art,art_003.jpg,3,1.1829
19,2,87,art,art_003.jpg,4,0.6373
20,1,23,art,art_003.jpg,7,1.0248
20,2,35,art,art_003.jpg,7,0.8082
21,1,63,art,art_003.jpg,5,0.7868
21,2,20,art,art_003.jpg,5,1.4744
22,1,90,art,art_003.jpg,1,0.7126
22,2,47,art,art_003.jpg,2,0.8491
23,1,84,art,art_003.jpg,3,1.5134
23,2,28,art,art_003.jpg,5,1.3473
24,1,82,art,art_003.jpg,2,1.228
24,2,26,art,art_003.jpg,2,1.2634
1,1,9,art,art_107.jpg,2,1.0452
1,2,34,art,art_107.jpg,5,1.0768
2,1,34,art,art_107.jpg,4,3.1079
2,2,95,art,art_107.jpg,2,0.8301
3,1,41,art,art_107.jpg,1,0.9532
3,2,48,art,art_107.jpg,1,0.9509
4,1,62,art,art_107.jpg,3,0.4812
4,2,69,art,art_107.jpg,5,0.564
5,1,85,art,art_107.jpg,2,1.1306
5,2,74,art,art_107.jpg,2,0.8837
6,1,36,art,art_107.jpg,1,1.2105
6,2,25,art,art_107.jpg,3,1.1119
7,1,49,art,art_107.jpg,1,0.7945
7,2,8,art,art_107.jpg,1,1.0688
8,1,102,art,art_107.jpg,1,0.7778
8,2,61,art,art_107.jpg,1,0.6497
9,1,45,art,art_107.jpg,5,0.73
9,2,96,art,art_107.jpg,5,0.7562
10,1,14,art,art_107.jpg,4,0.6006
10,2,65,art,art_107.jpg,3,0.4488
11,1,106,art,art_107.jpg,3,2.023
11,2,86,art,art_107.jpg,2,1.72
12,1,24,art,art_107.jpg,4,0.539
12,2,4,art,art_107.jpg,4,0.6621
13,1,56,art,art_107.jpg,1,0.9094
13,2,43,art,art_107.jpg,1,0.6613
14,1,67,art,art_107.jpg,1,1.0309
14,2,54,art,art_107.jpg,1,0.7111
15,1,15,art,art_107.jpg,4,1.0094
15,2,51,art,art_107.jpg,5,0.648
16,1,59,art,art_107.jpg,3,0.7628
16,2,95,art,art_107.jpg,2,0.6561
17,1,65,art,art_107.jpg,2,0.7134
17,2,57,art,art_107.jpg,4,0.8116
18,1,53,art,art_107.jpg,1,0.7773
18,2,45,art,art_107.jpg,1,0.7457
19,1,69,art,art_107.jpg,4,1.9842
19,2,93,art,art_107.jpg,4,0.553
20,1,17,art,art_107.jpg,5,0.8494
20,2,41,art,art_107.jpg,3,0.6437
21,1,6,art,art_107.jpg,5,1.3876
21,2,71,art,art_107.jpg,3,1.131
22,1,39,art,art_107.jpg,5,1.1539
22,2,104,art,art_107.jpg,5,0.5277
23,1,55,art,art_107.jpg,2,1.3322
23,2,97,art,art_107.jpg,2,0.7461
24,1,13,art,art_107.jpg,1,0.6261
24,2,55,art,art_107.jpg,1,0.7767
1,1,10,art,art_012.jpg,4,3.2511
1,2,14,art,art_012.jpg,4,1.4438
2,1,3,art,art_012.jpg,4,5.1999
2,2,11,art,art_012.jpg,3,1.0089
3,1,2,art,art_012.jpg,3,1.2531
3,2,79,art,art_012.jpg,3,0.9297
4,1,31,art,art_012.jpg,3,0.5144
4,2,108,art,art_012.jpg,3,0.395
5,1,69,art,art_012.jpg,1,0.8106
5,2,21,art,art_012.jpg,1,0.858
6,1,89,art,art_012.jpg,5,0.8042
6,2,41,art,art_012.jpg,5,1.8387
7,1,56,art,art_012.jpg,5,0.755
7,2,9,art,art_012.jpg,4,0.543
8,1,101,art,art_012.jpg,2,1.573
8,2,54,art,art_012.jpg,2,0.7672
9,1,56,art,art_012.jpg,6,0.8996
9,2,54,art,art_012.jpg,5,1.5514
10,1,56,art,art_012.jpg,4,0.4982
10,2,54,art,art_012.jpg,4,0.3998
11,1,67,art,art_012.jpg,4,1.2547
11,2,45,art,art_012.jpg,4,1.0102
12,1,65,art,art_012.jpg,5,0.6756
12,2,43,art,art_012.jpg,5,0.5802
13,1,16,art,art_012.jpg,1,0.993
13,2,60,art,art_012.jpg,1,0.738
14,1,50,art,art_012.jpg,5,0.9842
14,2,94,art,art_012.jpg,3,0.5438
15,1,106,art,art_012.jpg,5,0.6895
15,2,78,art,art_012.jpg,5,0.7079
16,1,32,art,art_012.jpg,3,0.9156
16,2,4,art,art_012.jpg,1,0.756
17,1,61,art,art_012.jpg,6,0.7643
17,2,5,art,art_012.jpg,4,1.8019
18,1,105,art,art_012.jpg,6,0.883
18,2,49,art,art_012.jpg,6,0.8178
19,1,15,art,art_012.jpg,4,0.55
19,2,106,art,art_012.jpg,2,0.8433
20,1,4,art,art_012.jpg,7,1.028
20,2,95,art,art_012.jpg,7,0.8237
21,1,4,art,art_012.jpg,6,1.1032
21,2,9,art,art_012.jpg,6,1.6117
22,1,101,art,art_012.jpg,2,0.7207
22,2,106,art,art_012.jpg,2,0.8921
23,1,98,art,art_012.jpg,6,1.5188
23,2,26,art,art_012.jpg,3,1.1271
24,1,84,art,art_012.jpg,1,0.9735
24,2,12,art,art_012.jpg,2,1.3282
1,1,11,art,art_066.jpg,5,1.4332
1,2,93,art,art_066.jpg,5,0.974
2,1,11,art,art_066.jpg,4,2.3691
2,2,43,art,art_066.jpg,3,1.0979
3,1,71,art,art_066.jpg,4,0.85
3,2,28,art,art_066.jpg,3,0.6507
4,1,82,art,art_066.jpg,4,3.2561
4,2,39,art,art_066.jpg,4,2.3045
5,1,97,art,art_066.jpg,1,0.7102
5,2,93,art,art_066.jpg,2,1.0173
6,1,17,art,art_066.jpg,5,1.0236
6,2,13,art,art_066.jpg,4,1.3318
7,1,12,art,art_066.jpg,1,0.7197
7,2,24,art,art_066.jpg,1,0.6693
8,1,86,art,art_066.jpg,3,0.9257
8,2,98,art,art_066.jpg,5,0.6883
9,1,10,art,art_066.jpg,4,0.6892
9,2,108,art,art_066.jpg,6,2.0396
10,1,2,art,art_066.jpg,3,1.3627
10,2,100,art,art_066.jpg,3,0.4921
11,1,55,art,art_066.jpg,4,1.2
11,2,92,art,art_066.jpg,2,2.0983
12,1,18,art,art_066.jpg,4,1.0469
12,2,55,art,art_066.jpg,5,0.4058
13,1,87,art,art_066.jpg,1,1.0952
13,2,26,art,art_066.jpg,1,1.4812
14,1,84,art,art_066.jpg,2,1.4505
14,2,23,art,art_066.jpg,2,0.6835
15,1,54,art,art_066.jpg,5,0.7473
15,2,108,art,art_066.jpg,5,0.4583
16,1,2,art,art_066.jpg,4,1.6184
16,2,56,art,art_066.jpg,3,0.6724
17,1,105,art,art_066.jpg,5,0.8601
17,2,92,art,art_066.jpg,5,1.6029
18,1,18,art,art_066.jpg,7,0.8351
18,2,5,art,art_066.jpg,7,0.8092
19,1,54,art,art_066.jpg,5,0.9839
19,2,57,art,art_066.jpg,5,0.6022
20,1,53,art,art_066.jpg,7,0.8947
20,2,56,art,art_066.jpg,4,12.4404
21,1,37,art,art_066.jpg,6,1.4061
21,2,48,art,art_066.jpg,5,2.1161
22,1,62,art,art_066.jpg,4,1.605
22,2,73,art,art_066.jpg,5,0.5226
23,1,44,art,art_066.jpg,2,0.7464
23,2,3,art,art_066.jpg,4,0.8999
24,1,107,art,art_066.jpg,4,0.7446
24,2,66,art,art_066.jpg,2,0.568
1,1,12,art,art_010.jpg,3,1.0823
1,2,3,art,art_010.jpg,3,1.4637
2,1,82,art,art_010.jpg,4,1.4136
2,2,21,art,art_010.jpg,3,0.8967
3,1,8,art,art_010.jpg,3,0.7963
3,2,12,art,art_010.jpg,3,0.8121
4,1,98,art,art_010.jpg,6,0.7052
4,2,102,art,art_010.jpg,6,0.6394
5,1,56,art,art_010.jpg,5,0.6092
5,2,60,art,art_010.jpg,5,1.2248
6,1,50,art,art_010.jpg,4,0.5574
6,2,54,art,art_010.jpg,4,2.7848
7,1,55,art,art_010.jpg,1,0.8809
7,2,56,art,art_010.jpg,1,0.7728
8,1,54,art,art_010.jpg,4,0.8248
8,2,55,art,art_010.jpg,4,0.8916
9,1,109,art,art_010.jpg,5,0.7521
9,2,49,art,art_010.jpg,5,1.5063
10,1,61,art,art_010.jpg,5,0.7557
10,2,1,art,art_010.jpg,6,0.7514
11,1,81,art,art_010.jpg,6,0.9417
11,2,20,art,art_010.jpg,5,0.7681
12,1,90,art,art_010.jpg,3,0.7721
12,2,29,art,art_010.jpg,3,1.0119
13,1,27,art,art_010.jpg,5,0.8913
13,2,90,art,art_010.jpg,6,1.9154
14,1,20,art,art_010.jpg,7,0.7527
14,2,83,art,art_010.jpg,5,0.5015
15,1,66,art,art_010.jpg,3,0.7507
15,2,22,art,art_010.jpg,3,0.568
16,1,88,art,art_010.jpg,7,0.6646
16,2,44,art,art_010.jpg,7,0.6666
17,1,17,art,art_010.jpg,6,0.8437
17,2,23,art,art_010.jpg,7,0.8653
18,1,87,art,art_010.jpg,2,1.6336
18,2,93,art,art_010.jpg,3,1.2404
19,1,18,art,art_010.jpg,6,0.8037
19,2,9,art,art_010.jpg,6,0.7559
20,1,101,art,art_010.jpg,7,0.9554
20,2,92,art,art_010.jpg,7,0.8743
21,1,13,art,art_010.jpg,3,0.8085
21,2,37,art,art_010.jpg,2,1.1977
22,1,73,art,art_010.jpg,5,0.507
22,2,97,art,art_010.jpg,5,0.7297
23,1,43,art,art_010.jpg,5,0.7389
23,2,100,art,art_010.jpg,3,0.9627
24,1,10,art,art_010.jpg,5,0.6682
24,2,67,art,art_010.jpg,4,1.4925
1,1,13,art,art_008.jpg,4,1.4656
1,2,25,art,art_008.jpg,3,0.8
2,1,5,art,art_008.jpg,4,3.1873
2,2,26,art,art_008.jpg,3,0.7581
3,1,86,art,art_008.jpg,4,1.3067
3,2,21,art,art_008.jpg,3,1.0708
4,1,89,art,art_008.jpg,5,0.7302
4,2,24,art,art_008.jpg,4,1.4319
5,1,107,art,art_008.jpg,3,0.754
5,2,38,art,art_008.jpg,2,1.562
6,1,72,art,art_008.jpg,5,1.9558
6,2,3,art,art_008.jpg,5,0.6343
7,1,32,art,art_008.jpg,4,0.5041
7,2,66,art,art_008.jpg,4,0.6177
8,1,44,art,art_008.jpg,3,0.5948
8,2,78,art,art_008.jpg,2,0.8994
9,1,89,art,art_008.jpg,5,0.6407
9,2,15,art,art_008.jpg,5,1.076
10,1,95,art,art_008.jpg,4,0.7425
10,2,21,art,art_008.jpg,5,0.4959
11,1,35,art,art_008.jpg,3,1.1864
11,2,90,art,art_008.jpg,2,1.4699
12,1,20,art,art_008.jpg,5,0.6938
12,2,75,art,art_008.jpg,5,0.5948
13,1,26,art,art_008.jpg,3,1.2598
13,2,17,art,art_008.jpg,3,0.9285
14,1,93,art,art_008.jpg,2,1.2441
14,2,84,art,art_008.jpg,2,0.6286
15,1,99,art,art_008.jpg,5,0.9801
15,2,107,art,art_008.jpg,4,0.7869
16,1,3,art,art_008.jpg,5,1.2661
16,2,11,art,art_008.jpg,2,0.8602
17,1,60,art,art_008.jpg,6,0.7089
17,2,43,art,art_008.jpg,5,0.7335
18,1,67,art,art_008.jpg,6,0.6559
18,2,50,art,art_008.jpg,5,0.929
19,1,41,art,art_008.jpg,2,0.6888
19,2,25,art,art_008.jpg,4,0.671
20,1,85,art,art_008.jpg,7,1.0714
20,2,69,art,art_008.jpg,7,0.9535
21,1,33,art,art_008.jpg,6,0.7229
21,2,89,art,art_008.jpg,4,0.6584
22,1,21,art,art_008.jpg,2,1.1211
22,2,77,art,art_008.jpg,2,0.7134
23,1,82,art,art_008.jpg,5,0.8694
23,2,82,art,art_008.jpg,5,1.2681
24,1,28,art,art_008.jpg,1,1.0208
24,2,28,art,art_008.jpg,1,1.4383
1,1,14,art,art_036.jpg,3,0.7937
1,2,84,art,art_036.jpg,3,3.1318
2,1,66,art,art_036.jpg,2,2.2699
2,2,24,art,art_036.jpg,3,0.75
3,1,80,art,art_036.jpg,2,1.2674
3,2,31,art,art_036.jpg,2,1.1605
4,1,79,art,art_036.jpg,5,0.4714
4,2,30,art,art_036.jpg,4,4.9974
5,1,100,art,art_036.jpg,4,0.5961
5,2,66,art,art_036.jpg,5,0.7357
6,1,44,art,art_036.jpg,4,0.4682
6,2,10,art,art_036.jpg,4,1.2108
7,1,101,art,art_036.jpg,1,0.7865
7,2,23,art,art_036.jpg,2,0.702
8,1,87,art,art_036.jpg,2,0.9782
8,2,9,art,art_036.jpg,2,0.8215
9,1,92,art,art_036.jpg,6,0.697
9,2,41,art,art_036.jpg,5,0.6219
10,1,69,art,art_036.jpg,5,0.5125
10,2,18,art,art_036.jpg,4,0.5133
11,1,86,art,art_036.jpg,5,0.9295
11,2,11,art,art_036.jpg,5,1.3083
12,1,99,art,art_036.jpg,6,0.5069
12,2,24,art,art_036.jpg,5,0.7088
13,1,67,art,art_036.jpg,1,0.603
13,2,21,art,art_036.jpg,1,1.5203
14,1,89,art,art_036.jpg,2,0.9192
14,2,43,art,art_036.jpg,2,0.5561
15,1,7,art,art_036.jpg,2,0.9146
15,2,91,art,art_036.jpg,3,0.5431
16,1,19,art,art_036.jpg,4,0.6682
16,2,103,art,art_036.jpg,4,0.56
17,1,68,art,art_036.jpg,6,1.5167
17,2,45,art,art_036.jpg,5,0.6278
18,1,65,art,art_036.jpg,4,1.2119
18,2,42,art,art_036.jpg,3,0.9506
19,1,79,art,art_036.jpg,4,0.4737
19,2,101,art,art_036.jpg,4,0.8067
20,1,9,art,art_036.jpg,5,2.6246
20,2,31,art,art_036.jpg,5,48.465
21,1,48,art,art_036.jpg,4,1.9861
21,2,34,art,art_036.jpg,3,7.002
22,1,76,art,art_036.jpg,2,0.8098
22,2,62,art,art_036.jpg,2,0.8324
23,1,95,art,art_036.jpg,3,0.9952
23,2,4,art,art_036.jpg,3,0.7312
24,1,106,art,art_036.jpg,5,0.737
24,2,15,art,art_036.jpg,4,0.8303
1,1,15,art,art_013.jpg,5,1.3488
1,2,12,art,art_013.jpg,5,0.874
2,1,46,art,art_013.jpg,3,1.1052
2,2,3,art,art_013.jpg,3,0.9046
3,1,85,art,art_013.jpg,7,1.8672
3,2,75,art,art_013.jpg,7,0.8952
4,1,35,art,art_013.jpg,6,0.6582
4,2,25,art,art_013.jpg,4,1.9701
5,1,102,art,art_013.jpg,6,0.9145
5,2,81,art,art_013.jpg,6,1.225
6,1,29,art,art_013.jpg,2,0.7214
6,2,8,art,art_013.jpg,2,1.0975
7,1,99,art,art_013.jpg,1,1.3264
7,2,61,art,art_013.jpg,1,2.5667
8,1,49,art,art_013.jpg,3,0.899
8,2,11,art,art_013.jpg,2,1.1193
9,1,19,art,art_013.jpg,5,1.2433
9,2,86,art,art_013.jpg,4,1.3117
10,1,24,art,art_013.jpg,4,0.3878
10,2,91,art,art_013.jpg,4,0.9913
11,1,61,art,art_013.jpg,7,0.6045
11,2,55,art,art_013.jpg,7,0.8425
12,1,55,art,art_013.jpg,4,2.8125
12,2,49,art,art_013.jpg,3,0.7036
13,1,41,art,art_013.jpg,2,0.9233
13,2,81,art,art_013.jpg,1,1.4812
14,1,29,art,art_013.jpg,5,1.9876
14,2,69,art,art_013.jpg,4,1.8695
15,1,32,art,art_013.jpg,5,0.5979
15,2,2,art,art_013.jpg,3,0.6363
16,1,108,art,art_013.jpg,4,0.7235
16,2,78,art,art_013.jpg,3,0.6168
17,1,31,art,art_013.jpg,6,1.4342
17,2,107,art,art_013.jpg,5,3.0473
18,1,3,art,art_013.jpg,1,1.1419
18,2,79,art,art_013.jpg,1,1.4839
19,1,26,art,art_013.jpg,1,0.7956
19,2,22,art,art_013.jpg,2,1.0437
20,1,88,art,art_013.jpg,3,1.0
20,2,84,art,art_013.jpg,4,0.873
21,1,87,art,art_013.jpg,3,2.3956
21,2,31,art,art_013.jpg,5,6.1274
22,1,79,art,art_013.jpg,3,0.8004
22,2,23,art,art_013.jpg,4,0.5614
23,1,72,art,art_013.jpg,3,0.7637
23,2,29,art,art_013.jpg,3,0.6109
24,1,81,art,art_013.jpg,2,0.914
24,2,38,art,art_013.jpg,2,0.6788
1,1,16,art,art_017.jpg,5,1.5409
1,2,72,art,art_017.jpg,5,1.4661
2,1,53,art,art_017.jpg,3,2.3257
2,2,78,art,art_017.jpg,2,1.1417
3,1,39,art,art_017.jpg,6,0.9228
3,2,14,art,art_017.jpg,6,1.6725
4,1,96,art,art_017.jpg,6,0.8243
4,2,71,art,art_017.jpg,6,0.6079
5,1,43,art,art_017.jpg,5,1.3614
5,2,18,art,art_017.jpg,4,1.2094
6,1,92,art,art_017.jpg,4,0.7353
6,2,67,art,art_017.jpg,4,6.6196
7,1,7,art,art_017.jpg,4,0.9444
7,2,22,art,art_017.jpg,4,0.8357
8,1,88,art,art_017.jpg,2,0.9776
8,2,103,art,art_017.jpg,2,0.5755
9,1,105,art,art_017.jpg,4,0.5658
9,2,79,art,art_017.jpg,4,0.6173
10,1,31,art,art_017.jpg,6,0.5612
10,2,5,art,art_017.jpg,7,1.4496
11,1,40,art,art_017.jpg,2,2.3819
11,2,21,art,art_017.jpg,2,1.1569
12,1,89,art,art_017.jpg,5,0.4345
12,2,70,art,art_017.jpg,3,0.6322
13,1,58,art,art_017.jpg,1,1.0547
13,2,89,art,art_017.jpg,1,1.1133
14,1,21,art,art_017.jpg,4,0.8267
14,2,52,art,art_017.jpg,4,0.4969
15,1,47,art,art_017.jpg,5,0.5522
15,2,87,art,art_017.jpg,4,0.5677
16,1,23,art,art_017.jpg,5,0.7775
16,2,63,art,art_017.jpg,6,0.8598
17,1,41,art,art_017.jpg,6,0.7561
17,2,28,art,art_017.jpg,6,0.7659
18,1,82,art,art_017.jpg,7,0.994
18,2,69,art,art_017.jpg,6,0.6999
19,1,35,art,art_017.jpg,1,0.8698
19,2,29,art,art_017.jpg,2,1.0202
20,1,81,art,art_017.jpg,5,0.9962
20,2,75,art,art_017.jpg,7,0.7594
21,1,64,art,art_017.jpg,4,1.4021
21,2,45,art,art_017.jpg,4,1.1042
22,1,65,art,art_017.jpg,4,0.6808
22,2,46,art,art_017.jpg,4,0.5911
23,1,76,art,art_017.jpg,5,0.7072
23,2,35,art,art_017.jpg,5,0.8413
24,1,75,art,art_017.jpg,1,1.9918
24,2,34,art,art_017.jpg,1,1.0503
1,1,17,art,art_007.jpg,4,1.4131
1,2,27,art,art_007.jpg,4,2.1019
2,1,41,art,art_007.jpg,4,0.9115
2,2,101,art,art_007.jpg,3,1.024
3,1,55,art,art_007.jpg,7,0.9901
3,2,92,art,art_007.jpg,7,1.2282
4,1,18,art,art_007.jpg,4,0.6647
4,2,55,art,art_007.jpg,5,6.4545
5,1,50,art,art_007.jpg,5,0.6318
5,2,107,art,art_007.jpg,5,0.903
6,1,3,art,art_007.jpg,2,4.5093
6,2,60,art,art_007.jpg,5,7.8715
7,1,37,art,art_007.jpg,1,0.7885
7,2,96,art,art_007.jpg,1,1.2473
8,1,14,art,art_007.jpg,3,0.8692
8,2,73,art,art_007.jpg,2,0.729
9,1,12,art,art_007.jpg,5,0.6484
9,2,100,art,art_007.jpg,5,2.4177
10,1,10,art,art_007.jpg,6,1.0269
10,2,98,art,art_007.jpg,6,0.667
11,1,60,art,art_007.jpg,6,0.6079
11,2,73,art,art_007.jpg,7,1.7095
12,1,37,art,art_007.jpg,7,0.6587
12,2,50,art,art_007.jpg,6,0.5992
13,1,36,art,art_007.jpg,1,0.7783
13,2,75,art,art_007.jpg,1,0.8426
14,1,35,art,art_007.jpg,5,0.837
14,2,74,art,art_007.jpg,5,0.6156
15,1,16,art,art_007.jpg,4,0.9902
15,2,47,art,art_007.jpg,4,0.7286
16,1,63,art,art_007.jpg,3,0.8269
16,2,94,art,art_007.jpg,2,0.6916
17,1,33,art,art_007.jpg,5,0.665
17,2,9,art,art_007.jpg,6,0.8978
18,1,101,art,art_007.jpg,6,0.8217
18,2,77,art,art_007.jpg,6,0.7891
19,1,96,art,art_007.jpg,2,1.4192
19,2,14,art,art_007.jpg,3,0.7395
20,1,96,art,art_007.jpg,1,0.8166
20,2,14,art,art_007.jpg,1,0.7254
21,1,77,art,art_007.jpg,3,0.8981
21,2,59,art,art_007.jpg,4,1.4662
22,1,51,art,art_007.jpg,3,0.6339
22,2,33,art,art_007.jpg,3,0.6479
23,1,54,art,art_007.jpg,5,1.554
23,2,63,art,art_007.jpg,4,0.5465
24,1,47,art,art_007.jpg,3,0.8366
24,2,56,art,art_007.jpg,3,0.7601
1,1,18,art,art_045.jpg,4,2.7459
1,2,52,art,art_045.jpg,5,2.3693
2,1,32,art,art_045.jpg,3,1.0
2,2,90,art,art_045.jpg,4,0.7763
3,1,7,art,art_045.jpg,5,0.9088
3,2,24,art,art_045.jpg,3,1.5811
4,1,86,art,art_045.jpg,3,0.5773
4,2,103,art,art_045.jpg,5,0.6497
5,1,26,art,art_045.jpg,1,0.7798
5,2,96,art,art_045.jpg,1,2.5146
6,1,14,art,art_045.jpg,5,1.0493
6,2,84,art,art_045.jpg,6,0.8996
7,1,87,art,art_045.jpg,1,2.9331
7,2,86,art,art_045.jpg,1,1.259
8,1,24,art,art_045.jpg,3,1.4943
8,2,23,art,art_045.jpg,3,1.464
9,1,26,art,art_045.jpg,5,0.7905
9,2,69,art,art_045.jpg,4,0.5196
10,1,41,art,art_045.jpg,1,0.651
10,2,84,art,art_045.jpg,1,0.7087
11,1,25,art,art_045.jpg,4,1.5493
11,2,99,art,art_045.jpg,3,1.2603
12,1,11,art,art_045.jpg,4,0.7523
12,2,85,art,art_045.jpg,3,1.7551
13,1,52,art,art_045.jpg,1,1.9721
13,2,56,art,art_045.jpg,5,0.5674
14,1,54,art,art_045.jpg,1,0.5919
14,2,58,art,art_045.jpg,1,1.1935
15,1,14,art,art_045.jpg,5,2.0257
15,2,23,art,art_045.jpg,2,0.7006
16,1,87,art,art_045.jpg,2,1.372
16,2,96,art,art_045.jpg,3,0.8793
17,1,52,art,art_045.jpg,3,0.7835
17,2,65,art,art_045.jpg,3,0.7632
18,1,45,art,art_045.jpg,2,0.8177
18,2,58,art,art_045.jpg,1,0.7395
19,1,92,art,art_045.jpg,3,0.7281
19,2,4,art,art_045.jpg,3,0.8183
20,1,106,art,art_045.jpg,6,1.1787
20,2,18,art,art_045.jpg,5,0.6838
21,1,99,art,art_045.jpg,4,2.0824
21,2,19,art,art_045.jpg,4,1.0322
22,1,91,art,art_045.jpg,2,0.6905
22,2,11,art,art_045.jpg,3,0.7276
23,1,36,art,art_045.jpg,5,0.8809
23,2,71,art,art_045.jpg,6,0.7592
24,1,39,art,art_045.jpg,7,0.8103
24,2,74,art,art_045.jpg,6,0.6402
1,1,19,art,art_077.jpg,6,1.0825
1,2,30,art,art_077.jpg,6,1.6175
2,1,96,art,art_077.jpg,5,0.9039
2,2,53,art,art_077.jpg,3,1.5605
3,1,53,art,art_077.jpg,1,1.1303
3,2,7,art,art_077.jpg,1,0.9328
4,1,103,art,art_077.jpg,4,1.051
4,2,57,art,art_077.jpg,6,0.5581
5,1,95,art,art_077.jpg,3,0.7914
5,2,51,art,art_077.jpg,4,0.619
6,1,59,art,art_077.jpg,2,1.2184
6,2,15,art,art_077.jpg,4,0.5947
7,1,58,art,art_077.jpg,1,1.0017
7,2,88,art,art_077.jpg,1,1.0229
8,1,22,art,art_077.jpg,3,2.5136
8,2,52,art,art_077.jpg,2,0.6803
9,1,99,art,art_077.jpg,7,0.887
9,2,17,art,art_077.jpg,6,0.9011
10,1,93,art,art_077.jpg,2,0.6346
10,2,11,art,art_077.jpg,1,0.6649
11,1,14,art,art_077.jpg,4,0.8951
11,2,30,art,art_077.jpg,4,0.8895
12,1,80,art,art_077.jpg,3,0.7746
12,2,96,art,art_077.jpg,2,1.0682
13,1,54,art,art_077.jpg,1,3.2164
13,2,108,art,art_077.jpg,4,0.9304
14,1,2,art,art_077.jpg,5,0.8017
14,2,56,art,art_077.jpg,6,0.6591
15,1,61,art,art_077.jpg,5,0.6338
15,2,53,art,art_077.jpg,5,0.5878
16,1,57,art,art_077.jpg,6,0.6387
16,2,49,art,art_077.jpg,5,0.6582
17,1,12,art,art_077.jpg,4,0.8204
17,2,67,art,art_077.jpg,5,0.642
18,1,43,art,art_077.jpg,4,0.8086
18,2,98,art,art_077.jpg,3,0.6883
19,1,31,art,art_077.jpg,2,0.7257
19,2,36,art,art_077.jpg,2,0.7694
20,1,74,art,art_077.jpg,4,1.2568
20,2,79,art,art_077.jpg,5,1.1276
21,1,109,art,art_077.jpg,3,8.0334
21,2,81,art,art_077.jpg,3,0.7283
22,1,29,art,art_077.jpg,7,0.8652
22,2,1,art,art_077.jpg,7,0.7475
23,1,41,art,art_077.jpg,6,1.2015
23,2,83,art,art_077.jpg,5,0.7316
24,1,27,art,art_077.jpg,7,0.8881
24,2,69,art,art_077.jpg,6,1.2089
1,1,20,art,art_059.jpg,5,1.336
1,2,47,art,art_059.jpg,5,7.5087
2,1,25,art,art_059.jpg,3,0.8877
2,2,64,art,art_059.jpg,4,0.7864
3,1,91,art,art_059.jpg,5,0.7782
3,2,2,art,art_059.jpg,5,0.7766
4,1,108,art,art_059.jpg,5,1.1997
4,2,19,art,art_059.jpg,4,0.7918
5,1,41,art,art_059.jpg,1,0.9468
5,2,92,art,art_059.jpg,3,0.6446
6,1,18,art,art_059.jpg,4,2.9348
6,2,69,art,art_059.jpg,5,2.3117
7,1,90,art,art_059.jpg,2,0.8173
7,2,11,art,art_059.jpg,1,1.1283
8,1,99,art,art_059.jpg,3,0.6353
8,2,20,art,art_059.jpg,3,0.5299
9,1,21,art,art_059.jpg,4,1.5195
9,2,58,art,art_059.jpg,6,0.7222
10,1,52,art,art_059.jpg,2,0.7569
10,2,89,art,art_059.jpg,3,0.5239
11,1,47,art,art_059.jpg,2,0.9487
11,2,78,art,art_059.jpg,2,0.7465
12,1,32,art,art_059.jpg,5,1.1044
12,2,63,art,art_059.jpg,4,0.3838
13,1,17,art,art_059.jpg,3,1.779
13,2,10,art,art_059.jpg,3,1.4034
14,1,100,art,art_059.jpg,2,1.3467
14,2,93,art,art_059.jpg,2,0.5842
15,1,50,art,art_059.jpg,4,0.9421
15,2,57,art,art_059.jpg,3,0.8968
16,1,53,art,art_059.jpg,2,1.1616
16,2,60,art,art_059.jpg,3,0.8986
17,1,55,art,art_059.jpg,2,0.7444
17,2,59,art,art_059.jpg,1,0.5865
18,1,51,art,art_059.jpg,3,0.9386
18,2,55,art,art_059.jpg,3,0.8109
19,1,93,art,art_059.jpg,4,0.9808
19,2,24,art,art_059.jpg,3,0.6238
20,1,86,art,art_059.jpg,5,1.0094
20,2,17,art,art_059.jpg,4,1.8866
21,1,24,art,art_059.jpg,4,0.9476
21,2,26,art,art_059.jpg,3,6.1921
22,1,84,art,art_059.jpg,3,1.2715
22,2,86,art,art_059.jpg,2,0.4912
23,1,21,art,art_059.jpg,6,1.1759
23,2,13,art,art_059.jpg,5,0.6425
24,1,97,art,art_059.jpg,6,0.6982
24,2,89,art,art_059.jpg,5,0.5431
1,1,21,art,art_034.jpg,5,1.1516
1,2,74,art,art_034.jpg,6,1.3614
2,1,7,art,art_034.jpg,3,1.7123
2,2,71,art,art_034.jpg,3,1.031
3,1,1,art,art_034.jpg,5,2.1283
3,2,97,art,art_034.jpg,5,0.6334
4,1,13,art,art_034.jpg,3,0.4681
4,2,109,art,art_034.jpg,2,0.5648
5,1,21,art,art_034.jpg,2,0.9859
5,2,15,art,art_034.jpg,1,0.8856
6,1,95,art,art_034.jpg,2,1.7042
6,2,89,art,art_034.jpg,2,1.1321
7,1,25,art,art_034.jpg,1,0.7755
7,2,69,art,art_034.jpg,1,1.0504
8,1,41,art,art_034.jpg,4,1.5032
8,2,85,art,art_034.jpg,4,0.8889
9,1,88,art,art_034.jpg,5,0.8308
9,2,109,art,art_034.jpg,4,1.4341
10,1,1,art,art_034.jpg,3,0.7201
10,2,22,art,art_034.jpg,3,1.3269
11,1,85,art,art_034.jpg,2,1.6446
11,2,46,art,art_034.jpg,1,1.9033
12,1,64,art,art_034.jpg,3,0.5617
12,2,25,art,art_034.jpg,4,1.0283
13,1,102,art,art_034.jpg,1,0.8902
13,2,27,art,art_034.jpg,1,0.9072
14,1,83,art,art_034.jpg,2,0.8674
14,2,8,art,art_034.jpg,2,0.7732
15,1,93,art,art_034.jpg,4,0.7308
15,2,79,art,art_034.jpg,2,0.7311
16,1,31,art,art_034.jpg,3,1.2413
16,2,17,art,art_034.jpg,3,0.9572
17,1,88,art,art_034.jpg,6,0.8501
17,2,70,art,art_034.jpg,5,0.7434
18,1,40,art,art_034.jpg,1,1.1384
18,2,22,art,art_034.jpg,1,0.7708
19,1,61,art,art_034.jpg,3,0.7205
19,2,61,art,art_034.jpg,2,0.7668
20,1,49,art,art_034.jpg,2,1.0466
20,2,49,art,art_034.jpg,2,1.2188
21,1,84,art,art_034.jpg,3,0.7497
21,2,100,art,art_034.jpg,4,0.9629
22,1,10,art,art_034.jpg,6,0.7526
22,2,26,art,art_034.jpg,6,0.751
23,1,70,art,art_034.jpg,3,0.96
23,2,99,art,art_034.jpg,3,1.0726
24,1,11,art,art_034.jpg,2,1.0433
24,2,40,art,art_034.jpg,1,1.3626
1,1,22,art,art_005.jpg,5,1.6262
1,2,42,art,art_005.jpg,5,0.7769
2,1,42,art,art_005.jpg,3,1.7778
2,2,44,art,art_005.jpg,3,2.2091
3,1,17,art,art_005.jpg,2,1.1272
3,2,100,art,art_005.jpg,1,1.0155
4,1,10,art,art_005.jpg,2,0.6943
4,2,93,art,art_005.jpg,5,0.5001
5,1,30,art,art_005.jpg,1,0.7481
5,2,47,art,art_005.jpg,2,1.4428
6,1,63,art,art_005.jpg,4,1.3284
6,2,80,art,art_005.jpg,5,0.6728
7,1,109,art,art_005.jpg,1,1.0569
7,2,62,art,art_005.jpg,1,1.4199
8,1,48,art,art_005.jpg,4,1.5472
8,2,1,art,art_005.jpg,2,0.8166
9,1,72,art,art_005.jpg,6,1.0866
9,2,12,art,art_005.jpg,5,1.2007
10,1,98,art,art_005.jpg,3,1.6578
10,2,38,art,art_005.jpg,3,0.5927
11,1,1,art,art_005.jpg,6,1.0193
11,2,100,art,art_005.jpg,5,0.9077
12,1,10,art,art_005.jpg,5,0.9103
12,2,109,art,art_005.jpg,2,0.5778
13,1,100,art,art_005.jpg,2,2.051
13,2,5,art,art_005.jpg,2,1.2117
14,1,105,art,art_005.jpg,4,1.4636
14,2,10,art,art_005.jpg,2,0.7235
15,1,82,art,art_005.jpg,3,0.6315
15,2,73,art,art_005.jpg,2,0.6696
16,1,37,art,art_005.jpg,2,0.7841
16,2,28,art,art_005.jpg,1,0.9054
17,1,70,art,art_005.jpg,5,2.0325
17,2,55,art,art_005.jpg,5,0.6958
18,1,55,art,art_005.jpg,2,0.8453
18,2,40,art,art_005.jpg,2,0.8078
19,1,14,art,art_005.jpg,2,1.0759
19,2,50,art,art_005.jpg,2,0.7725
20,1,60,art,art_005.jpg,5,1.6638
20,2,96,art,art_005.jpg,6,0.783
21,1,55,art,art_005.jpg,2,1.4817
21,2,63,art,art_005.jpg,5,1.1228
22,1,47,art,art_005.jpg,2,0.8099
22,2,55,art,art_005.jpg,2,0.5281
23,1,107,art,art_005.jpg,6,0.823
23,2,16,art,art_005.jpg,4,0.7151
24,1,94,art,art_005.jpg,5,0.8309
24,2,3,art,art_005.jpg,5,1.0278
1,1,23,art,art_056.jpg,2,1.0907
1,2,43,art,art_056.jpg,5,5.6336
2,1,38,art,art_056.jpg,5,0.946
2,2,86,art,art_056.jpg,4,0.7117
3,1,68,art,art_056.jpg,6,1.0573
3,2,57,art,art_056.jpg,6,1.1108
4,1,53,art,art_056.jpg,5,1.0066
4,2,42,art,art_056.jpg,5,4.0954
5,1,70,art,art_056.jpg,4,0.6474
5,2,36,art,art_056.jpg,2,1.8308
6,1,74,art,art_056.jpg,3,0.952
6,2,40,art,art_056.jpg,2,1.183
7,1,95,art,art_056.jpg,1,1.6542
7,2,46,art,art_056.jpg,2,1.1146
8,1,64,art,art_056.jpg,3,0.7765
8,2,15,art,art_056.jpg,4,1.8022
9,1,102,art,art_056.jpg,4,0.4398
9,2,78,art,art_056.jpg,4,0.586
10,1,32,art,art_056.jpg,5,0.4671
10,2,8,art,art_056.jpg,5,1.6427
11,1,84,art,art_056.jpg,4,1.7407
11,2,33,art,art_056.jpg,4,0.9405
12,1,77,art,art_056.jpg,2,0.5476
12,2,26,art,art_056.jpg,2,0.5876
13,1,97,art,art_056.jpg,6,0.7936
13,2,40,art,art_056.jpg,7,0.6471
14,1,70,art,art_056.jpg,3,1.1376
14,2,13,art,art_056.jpg,2,1.0044
15,1,89,art,art_056.jpg,3,0.6988
15,2,4,art,art_056.jpg,2,0.5199
16,1,106,art,art_056.jpg,3,0.7036
16,2,21,art,art_056.jpg,3,1.0426
17,1,66,art,art_056.jpg,5,0.8834
17,2,46,art,art_056.jpg,5,0.7871
18,1,64,art,art_056.jpg,7,0.7618
18,2,44,art,art_056.jpg,6,0.7868
19,1,5,art,art_056.jpg,2,0.9729
19,2,83,art,art_056.jpg,2,0.7524
20,1,27,art,art_056.jpg,1,2.4114
20,2,105,art,art_056.jpg,1,0.8416
21,1,81,art,art_056.jpg,5,0.5388
21,2,10,art,art_056.jpg,5,1.0643
22,1,100,art,art_056.jpg,3,0.684
22,2,29,art,art_056.jpg,3,0.6318
23,1,62,art,art_056.jpg,3,2.8891
23,2,5,art,art_056.jpg,3,0.6796
24,1,105,art,art_056.jpg,4,1.1191
24,2,48,art,art_056.jpg,2,3.2077
1,1,24,art,art_009.jpg,5,0.7117
1,2,29,art,art_009.jpg,5,2.5439
2,1,75,art,art_009.jpg,5,2.4286
2,2,5,art,art_009.jpg,5,1.1822
3,1,44,art,art_009.jpg,2,1.1382
3,2,46,art,art_009.jpg,2,0.8028
4,1,64,art,art_009.jpg,7,0.8555
4,2,66,art,art_009.jpg,7,1.105
5,1,15,art,art_009.jpg,4,0.7313
5,2,2,art,art_009.jpg,4,1.1787
6,1,108,art,art_009.jpg,5,0.9092
6,2,95,art,art_009.jpg,5,0.9206
7,1,103,art,art_009.jpg,6,1.5376
7,2,104,art,art_009.jpg,6,1.3682
8,1,6,art,art_009.jpg,4,2.6583
8,2,7,art,art_009.jpg,4,0.5432
9,1,101,art,art_009.jpg,6,0.8964
9,2,94,art,art_009.jpg,6,0.6882
10,1,16,art,art_009.jpg,6,0.6979
10,2,9,art,art_009.jpg,6,0.8074
11,1,102,art,art_009.jpg,7,1.108
11,2,67,art,art_009.jpg,7,1.2895
12,1,43,art,art_009.jpg,5,0.7614
12,2,8,art,art_009.jpg,5,0.5635
13,1,31,art,art_009.jpg,2,1.1845
13,2,78,art,art_009.jpg,2,0.9897
14,1,32,art,art_009.jpg,5,0.5459
14,2,79,art,art_009.jpg,5,0.7916
15,1,2,art,art_009.jpg,6,1.8159
15,2,52,art,art_009.jpg,5,0.7407
16,1,58,art,art_009.jpg,6,0.9926
16,2,108,art,art_009.jpg,6,0.7003
17,1,40,art,art_009.jpg,5,0.8474
17,2,6,art,art_009.jpg,5,0.6842
18,1,104,art,art_009.jpg,5,0.9076
18,2,70,art,art_009.jpg,5,0.883
19,1,83,art,art_009.jpg,6,0.8096
19,2,41,art,art_009.jpg,5,0.888
20,1,69,art,art_009.jpg,7,1.0091
20,2,27,art,art_009.jpg,7,1.0486
21,1,11,art,art_009.jpg,5,2.414
21,2,27,art,art_009.jpg,3,8.8518
22,1,83,art,art_009.jpg,2,1.0908
22,2,99,art,art_009.jpg,3,1.1441
23,1,80,art,art_009.jpg,5,1.6759
23,2,61,art,art_009.jpg,4,0.7452
24,1,49,art,art_009.jpg,5,0.7657
24,2,30,art,art_009.jpg,5,0.6961
1,1,25,art,art_070.jpg,5,1.3623
1,2,51,art,art_070.jpg,5,1.1472
2,1,77,art,art_070.jpg,4,1.1311
2,2,54,art,art_070.jpg,4,0.8986
3,1,108,art,art_070.jpg,4,0.8711
3,2,10,art,art_070.jpg,3,0.6885
4,1,100,art,art_070.jpg,4,0.4719
4,2,2,art,art_070.jpg,4,0.6121
5,1,18,art,art_070.jpg,1,1.9235
5,2,64,art,art_070.jpg,2,0.9315
6,1,46,art,art_070.jpg,6,0.8451
6,2,92,art,art_070.jpg,6,1.0611
7,1,8,art,art_070.jpg,3,0.7118
7,2,34,art,art_070.jpg,1,0.7511
8,1,76,art,art_070.jpg,4,0.7509
8,2,102,art,art_070.jpg,4,0.8693
9,1,6,art,art_070.jpg,6,0.612
9,2,81,art,art_070.jpg,4,0.8397
10,1,29,art,art_070.jpg,3,0.5707
10,2,104,art,art_070.jpg,3,1.1073
11,1,105,art,art_070.jpg,3,1.2022
11,2,53,art,art_070.jpg,4,0.7981
12,1,57,art,art_070.jpg,3,0.5959
12,2,5,art,art_070.jpg,3,0.7491
13,1,61,art,art_070.jpg,4,0.6527
13,2,87,art,art_070.jpg,1,0.8322
14,1,23,art,art_070.jpg,3,3.0812
14,2,49,art,art_070.jpg,2,0.6159
15,1,96,art,art_070.jpg,3,1.286
15,2,42,art,art_070.jpg,2,0.6818
16,1,68,art,art_070.jpg,3,0.6634
16,2,14,art,art_070.jpg,2,0.8101
17,1,87,art,art_070.jpg,1,0.8404
17,2,103,art,art_070.jpg,1,0.9751
18,1,7,art,art_070.jpg,5,2.2966
18,2,23,art,art_070.jpg,6,0.6715
19,1,30,art,art_070.jpg,4,0.8357
19,2,107,art,art_070.jpg,5,0.5918
20,1,3,art,art_070.jpg,6,1.0873
20,2,80,art,art_070.jpg,6,1.5962
21,1,106,art,art_070.jpg,5,0.7473
21,2,91,art,art_070.jpg,5,1.0145
22,1,19,art,art_070.jpg,2,0.669
22,2,4,art,art_070.jpg,2,1.308
23,1,59,art,art_070.jpg,6,1.1462
23,2,65,art,art_070.jpg,6,1.4629
24,1,45,art,art_070.jpg,7,1.0806
24,2,51,art,art_070.jpg,7,1.8315
1,1,26,art,art_104.jpg,3,0.7841
1,2,101,art,art_104.jpg,4,1.3193
2,1,85,art,art_104.jpg,5,1.056
2,2,22,art,art_104.jpg,4,0.9996
3,1,59,art,art_104.jpg,1,1.26
3,2,105,art,art_104.jpg,1,0.7243
4,1,5,art,art_104.jpg,5,0.5648
4,2,51,art,art_104.jpg,3,4.9457
5,1,28,art,art_104.jpg,2,1.0479
5,2,33,art,art_104.jpg,2,0.7314
6,1,77,art,art_104.jpg,2,0.8918
6,2,82,art,art_104.jpg,2,0.6181
7,1,38,art,art_104.jpg,1,0.7621
7,2,40,art,art_104.jpg,1,0.6681
8,1,70,art,art_104.jpg,1,0.5724
8,2,72,art,art_104.jpg,1,0.6577
9,1,52,art,art_104.jpg,6,1.0245
9,2,48,art,art_104.jpg,6,1.232
10,1,62,art,art_104.jpg,4,0.5817
10,2,58,art,art_104.jpg,4,0.6394
11,1,9,art,art_104.jpg,3,1.0314
11,2,16,art,art_104.jpg,3,0.5942
12,1,94,art,art_104.jpg,4,0.6894
12,2,101,art,art_104.jpg,3,0.42
13,1,5,art,art_104.jpg,1,1.0472
13,2,12,art,art_104.jpg,1,2.5975
14,1,98,art,art_104.jpg,2,0.7693
14,2,105,art,art_104.jpg,2,0.5851
15,1,25,art,art_104.jpg,5,0.7068
15,2,58,art,art_104.jpg,4,0.816
16,1,52,art,art_104.jpg,3,0.7113
16,2,85,art,art_104.jpg,2,0.8572
17,1,37,art,art_104.jpg,2,0.9372
17,2,64,art,art_104.jpg,4,0.7801
18,1,46,art,art_104.jpg,2,0.7528
18,2,73,art,art_104.jpg,2,0.8384
19,1,36,art,art_104.jpg,2,1.4479
19,2,42,art,art_104.jpg,2,1.3566
20,1,68,art,art_104.jpg,1,0.9642
20,2,74,art,art_104.jpg,3,0.6201
21,1,57,art,art_104.jpg,5,0.8752
21,2,98,art,art_104.jpg,4,1.8305
22,1,12,art,art_104.jpg,4,0.514
22,2,53,art,art_104.jpg,4,0.3992
23,1,101,art,art_104.jpg,2,1.0855
23,2,2,art,art_104.jpg,2,0.9216
24,1,108,art,art_104.jpg,1,0.7599
24,2,9,art,art_104.jpg,2,0.7514
1,1,27,art,art_053.jpg,3,2.5029
1,2,81,art,art_053.jpg,3,1.1511
2,1,100,art,art_053.jpg,4,1.9839
2,2,8,art,art_053.jpg,4,0.8172
3,1,46,art,art_053.jpg,3,1.5612
3,2,52,art,art_053.jpg,3,0.6017
4,1,58,art,art_053.jpg,2,1.6891
4,2,64,art,art_053.jpg,5,5.0513
5,1,65,art,art_053.jpg,2,0.8403
5,2,86,art,art_053.jpg,2,0.9947
6,1,24,art,art_053.jpg,4,3.5126
6,2,45,art,art_053.jpg,4,0.9297
7,1,104,art,art_053.jpg,1,1.0893
7,2,90,art,art_053.jpg,1,1.2245
8,1,20,art,art_053.jpg,3,2.0822
8,2,6,art,art_053.jpg,3,0.6959
9,1,17,art,art_053.jpg,4,0.7142
9,2,95,art,art_053.jpg,5,0.7808
10,1,15,art,art_053.jpg,5,0.5865
10,2,93,art,art_053.jpg,4,1.9926
11,1,50,art,art_053.jpg,1,1.8079
11,2,26,art,art_053.jpg,1,1.2361
12,1,84,art,art_053.jpg,2,0.9771
12,2,60,art,art_053.jpg,3,0.9223
13,1,105,art,art_053.jpg,1,1.5844
13,2,13,art,art_053.jpg,1,0.9283
14,1,97,art,art_053.jpg,2,1.5192
14,2,5,art,art_053.jpg,2,1.0845
15,1,51,art,art_053.jpg,2,0.8936
15,2,65,art,art_053.jpg,2,0.603
16,1,45,art,art_053.jpg,2,0.7505
16,2,59,art,art_053.jpg,2,1.0328
17,1,54,art,art_053.jpg,5,2.3311
17,2,44,art,art_053.jpg,4,0.6738
18,1,66,art,art_053.jpg,2,0.8244
18,2,56,art,art_053.jpg,3,0.6634
19,1,25,art,art_053.jpg,3,0.9749
19,2,67,art,art_053.jpg,3,0.7574
20,1,43,art,art_053.jpg,4,1.0956
20,2,85,art,art_053.jpg,3,0.643
21,1,32,art,art_053.jpg,3,1.0327
21,2,102,art,art_053.jpg,4,0.6204
22,1,8,art,art_053.jpg,2,2.0363
22,2,78,art,art_053.jpg,4,0.6511
23,1,11,art,art_053.jpg,5,1.2873
23,2,108,art,art_053.jpg,5,0.6906
24,1,2,art,art_053.jpg,2,0.642
24,2,99,art,art_053.jpg,2,2.0666
1,1,28,art,art_044.jpg,3,2.3456
1,2,54,art,art_044.jpg,4,0.9056
2,1,23,art,art_044.jpg,4,1.1649
2,2,33,art,art_044.jpg,3,0.9338
3,1,98,art,art_044.jpg,7,1.1282
3,2,78,art,art_044.jpg,7,1.3918
4,1,32,art,art_044.jpg,5,1.1165
4,2,12,art,art_044.jpg,5,1.2167
5,1,60,art,art_044.jpg,1,1.3531
5,2,45,art,art_044.jpg,2,1.0626
6,1,65,art,art_044.jpg,6,0.7704
6,2,50,art,art_044.jpg,5,5.0507
7,1,80,art,art_044.jpg,1,1.4059
7,2,12,art,art_044.jpg,1,0.9651
8,1,98,art,art_044.jpg,3,0.6333
8,2,30,art,art_044.jpg,3,0.7768
9,1,59,art,art_044.jpg,5,0.9537
9,2,57,art,art_044.jpg,6,0.8722
10,1,53,art,art_044.jpg,3,0.5831
10,2,51,art,art_044.jpg,2,3.308
11,1,48,art,art_044.jpg,6,1.0037
11,2,39,art,art_044.jpg,6,0.8432
12,1,71,art,art_044.jpg,3,0.4874
12,2,62,art,art_044.jpg,3,0.5101
13,1,77,art,art_044.jpg,6,0.7381
13,2,103,art,art_044.jpg,6,0.6887
14,1,7,art,art_044.jpg,1,0.5823
14,2,33,art,art_044.jpg,1,0.6898
15,1,49,art,art_044.jpg,3,0.8758
15,2,96,art,art_044.jpg,3,0.5792
16,1,14,art,art_044.jpg,3,1.5992
16,2,61,art,art_044.jpg,4,0.6501
17,1,44,art,art_044.jpg,2,1.0256
17,2,27,art,art_044.jpg,5,0.8494
18,1,83,art,art_044.jpg,2,0.804
18,2,66,art,art_044.jpg,1,1.0696
19,1,6,art,art_044.jpg,4,0.5857
19,2,47,art,art_044.jpg,2,0.6575
20,1,63,art,art_044.jpg,6,1.2726
20,2,104,art,art_044.jpg,5,1.778
21,1,30,art,art_044.jpg,3,1.3059
21,2,8,art,art_044.jpg,4,0.8599
22,1,102,art,art_044.jpg,2,0.7626
22,2,80,art,art_044.jpg,2,0.6873
23,1,97,art,art_044.jpg,5,1.3701
23,2,33,art,art_044.jpg,5,0.6558
24,1,77,art,art_044.jpg,7,1.5726
24,2,13,art,art_044.jpg,6,0.933
1,1,29,art,art_106.jpg,4,1.2724
1,2,11,art,art_106.jpg,3,0.918
2,1,49,art,art_106.jpg,5,2.1994
2,2,73,art,art_106.jpg,4,0.9279
3,1,10,art,art_106.jpg,2,1.2459
3,2,9,art,art_106.jpg,2,0.8971
4,1,101,art,art_106.jpg,5,1.3698
4,2,100,art,art_106.jpg,5,0.4251
5,1,52,art,art_106.jpg,4,0.684
5,2,87,art,art_106.jpg,3,0.989
6,1,23,art,art_106.jpg,5,3.0434
6,2,58,art,art_106.jpg,5,1.1457
7,1,57,art,art_106.jpg,1,0.7649
7,2,67,art,art_106.jpg,1,0.873
8,1,43,art,art_106.jpg,4,1.2139
8,2,53,art,art_106.jpg,1,1.0424
9,1,66,art,art_106.jpg,5,0.7386
9,2,23,art,art_106.jpg,3,0.8356
10,1,87,art,art_106.jpg,5,0.6341
10,2,44,art,art_106.jpg,4,1.1221
11,1,15,art,art_106.jpg,1,1.1152
11,2,89,art,art_106.jpg,1,0.9155
12,1,21,art,art_106.jpg,4,1.018
12,2,95,art,art_106.jpg,2,1.2154
13,1,11,art,art_106.jpg,6,0.7798
13,2,15,art,art_106.jpg,1,1.0389
14,1,95,art,art_106.jpg,2,0.8991
14,2,99,art,art_106.jpg,2,6.5309
15,1,94,art,art_106.jpg,3,0.8476
15,2,20,art,art_106.jpg,2,0.5507
16,1,90,art,art_106.jpg,1,0.5784
16,2,16,art,art_106.jpg,1,0.6887
17,1,72,art,art_106.jpg,6,0.824
17,2,62,art,art_106.jpg,6,0.6159
18,1,48,art,art_106.jpg,5,0.7355
18,2,38,art,art_106.jpg,4,0.8972
19,1,4,art,art_106.jpg,4,0.595
19,2,8,art,art_106.jpg,4,0.6422
20,1,102,art,art_106.jpg,1,1.1895
20,2,106,art,art_106.jpg,1,1.1315
21,1,14,art,art_106.jpg,5,0.821
21,2,40,art,art_106.jpg,4,0.9314
22,1,70,art,art_106.jpg,6,0.5119
22,2,96,art,art_106.jpg,6,1.0661
23,1,90,art,art_106.jpg,2,0.6594
23,2,50,art,art_106.jpg,2,0.9945
24,1,60,art,art_106.jpg,1,0.7239
24,2,20,art,art_106.jpg,1,0.7232
1,1,30,art,art_025.jpg,6,1.2031
1,2,73,art,art_025.jpg,6,0.8108
2,1,19,art,art_025.jpg,5,2.3058
2,2,25,art,art_025.jpg,5,0.863
3,1,6,art,art_025.jpg,5,0.8885
3,2,41,art,art_025.jpg,5,1.0647
4,1,69,art,art_025.jpg,4,1.5091
4,2,104,art,art_025.jpg,6,0.518
5,1,37,art,art_025.jpg,6,0.9272
5,2,4,art,art_025.jpg,6,0.7457
6,1,106,art,art_025.jpg,6,0.817
6,2,73,art,art_025.jpg,4,6.5239
7,1,26,art,art_025.jpg,7,0.9159
7,2,58,art,art_025.jpg,7,0.7502
8,1,52,art,art_025.jpg,2,1.258
8,2,84,art,art_025.jpg,2,0.6979
9,1,13,art,art_025.jpg,6,0.7806
9,2,91,art,art_025.jpg,6,0.6319
10,1,19,art,art_025.jpg,2,0.4956
10,2,97,art,art_025.jpg,1,0.4678
11,1,21,art,art_025.jpg,4,0.877
11,2,64,art,art_025.jpg,3,0.6992
12,1,46,art,art_025.jpg,3,1.0767
12,2,89,art,art_025.jpg,4,0.8485
13,1,10,art,art_025.jpg,7,0.7537
13,2,48,art,art_025.jpg,7,1.2689
14,1,62,art,art_025.jpg,5,0.6876
14,2,100,art,art_025.jpg,5,0.6896
15,1,65,art,art_025.jpg,4,0.8236
15,2,99,art,art_025.jpg,3,0.5317
16,1,11,art,art_025.jpg,6,0.7881
16,2,45,art,art_025.jpg,6,0.8899
17,1,109,art,art_025.jpg,7,0.8655
17,2,50,art,art_025.jpg,7,0.6669
18,1,60,art,art_025.jpg,2,0.7698
18,2,1,art,art_025.jpg,1,0.8118
19,1,59,art,art_025.jpg,5,0.6258
19,2,88,art,art_025.jpg,4,0.4954
20,1,22,art,art_025.jpg,2,0.8173
20,2,51,art,art_025.jpg,2,1.5166
21,1,93,art,art_025.jpg,2,2.9993
21,2,52,art,art_025.jpg,5,1.7622
22,1,58,art,art_025.jpg,4,0.7518
22,2,17,art,art_025.jpg,5,1.3255
23,1,13,art,art_025.jpg,7,1.0248
23,2,107,art,art_025.jpg,7,0.7209
24,1,3,art,art_025.jpg,6,0.7079
24,2,97,art,art_025.jpg,6,0.7239
1,1,31,art,art_041.jpg,3,0.6418
1,2,20,art,art_041.jpg,3,1.8253
2,1,40,art,art_041.jpg,5,1.3178
2,2,32,art,art_041.jpg,5,1.0363
3,1,16,art,art_041.jpg,2,1.1035
3,2,39,art,art_041.jpg,2,1.3512
4,1,71,art,art_041.jpg,3,1.5456
4,2,94,art,art_041.jpg,6,0.4916
5,1,87,art,art_041.jpg,6,1.1082
5,2,53,art,art_041.jpg,5,1.4975
6,1,57,art,art_041.jpg,3,2.2435
6,2,23,art,art_041.jpg,2,1.129
7,1,33,art,art_041.jpg,1,0.9831
7,2,98,art,art_041.jpg,1,1.1186
8,1,12,art,art_041.jpg,5,1.6243
8,2,77,art,art_041.jpg,4,0.7403
9,1,93,art,art_041.jpg,6,0.8164
9,2,76,art,art_041.jpg,5,0.7177
10,1,34,art,art_041.jpg,5,0.5507
10,2,17,art,art_041.jpg,4,0.5194
11,1,79,art,art_041.jpg,6,1.4284
11,2,2,art,art_041.jpg,5,1.0269
12,1,108,art,art_041.jpg,3,0.5352
12,2,31,art,art_041.jpg,4,0.5062
13,1,28,art,art_041.jpg,7,1.3039
13,2,61,art,art_041.jpg,7,0.7534
14,1,49,art,art_041.jpg,5,0.7051
14,2,82,art,art_041.jpg,4,4.1142
15,1,33,art,art_041.jpg,2,0.7444
15,2,63,art,art_041.jpg,2,1.1378
16,1,47,art,art_041.jpg,7,0.6912
16,2,77,art,art_041.jpg,6,0.4924
17,1,106,art,art_041.jpg,7,0.8674
17,2,82,art,art_041.jpg,7,0.887
18,1,28,art,art_041.jpg,1,0.9446
18,2,4,art,art_041.jpg,1,1.3324
19,1,82,art,art_041.jpg,6,0.7865
19,2,86,art,art_041.jpg,6,0.7155
20,1,24,art,art_041.jpg,1,1.1678
20,2,28,art,art_041.jpg,6,25.917
21,1,47,art,art_041.jpg,1,0.8933
21,2,47,art,art_041.jpg,5,2.0283
22,1,63,art,art_041.jpg,7,0.986
22,2,63,art,art_041.jpg,7,0.7223
23,1,10,art,art_041.jpg,7,2.1622
23,2,11,art,art_041.jpg,7,1.0197
24,1,99,art,art_041.jpg,4,0.8087
24,2,100,art,art_041.jpg,3,0.6985
1,1,32,art,art_038.jpg,5,1.0311
1,2,31,art,art_038.jpg,3,0.9519
2,1,99,art,art_038.jpg,5,0.8622
2,2,28,art,art_038.jpg,5,2.2025
3,1,81,art,art_038.jpg,3,0.8829
3,2,99,art,art_038.jpg,1,1.3707
4,1,11,art,art_038.jpg,3,0.7309
4,2,29,art,art_038.jpg,3,36.5419
5,1,17,art,art_038.jpg,1,0.7004
5,2,6,art,art_038.jpg,1,0.9949
6,1,104,art,art_038.jpg,4,0.8023
6,2,93,art,art_038.jpg,4,0.7325
7,1,75,art,art_038.jpg,2,2.1145
7,2,97,art,art_038.jpg,1,2.0761
8,1,13,art,art_038.jpg,4,2.528
8,2,35,art,art_038.jpg,3,0.558
9,1,70,art,art_038.jpg,5,1.0746
9,2,75,art,art_038.jpg,5,0.7429
10,1,35,art,art_038.jpg,3,1.3206
10,2,40,art,art_038.jpg,2,0.9592
11,1,56,art,art_038.jpg,3,0.6742
11,2,94,art,art_038.jpg,2,1.4793
12,1,16,art,art_038.jpg,3,1.3435
12,2,54,art,art_038.jpg,4,0.7692
13,1,4,art,art_038.jpg,1,0.7759
13,2,58,art,art_038.jpg,1,1.2619
14,1,52,art,art_038.jpg,4,0.7215
14,2,106,art,art_038.jpg,3,1.1765
15,1,70,art,art_038.jpg,5,0.727
15,2,14,art,art_038.jpg,3,0.662
16,1,96,art,art_038.jpg,5,1.3848
16,2,40,art,art_038.jpg,5,0.6565
17,1,30,art,art_038.jpg,3,0.9123
17,2,97,art,art_038.jpg,4,0.6778
18,1,13,art,art_038.jpg,1,0.8167
18,2,80,art,art_038.jpg,1,0.9528
19,1,45,art,art_038.jpg,4,0.6433
19,2,6,art,art_038.jpg,3,0.6569
20,1,104,art,art_038.jpg,5,0.8763
20,2,65,art,art_038.jpg,5,0.7052
21,1,5,art,art_038.jpg,5,1.8466
21,2,57,art,art_038.jpg,5,0.7477
22,1,53,art,art_038.jpg,5,0.7628
22,2,105,art,art_038.jpg,3,2.0604
23,1,109,art,art_038.jpg,5,2.0913
23,2,91,art,art_038.jpg,7,0.7289
24,1,19,art,art_038.jpg,4,0.6861
24,2,1,art,art_038.jpg,3,1.7197
1,1,33,art,art_080.jpg,7,0.872
1,2,49,art,art_080.jpg,5,1.2213
2,1,21,art,art_080.jpg,6,1.8354
2,2,23,art,art_080.jpg,6,0.8411
3,1,43,art,art_080.jpg,2,1.0325
3,2,3,art,art_080.jpg,2,0.776
4,1,107,art,art_080.jpg,6,0.6511
4,2,67,art,art_080.jpg,5,0.6163
5,1,8,art,art_080.jpg,3,1.221
5,2,32,art,art_080.jpg,2,2.0009
6,1,78,art,art_080.jpg,6,0.7524
6,2,102,art,art_080.jpg,6,0.7025
7,1,63,art,art_080.jpg,6,0.9318
7,2,33,art,art_080.jpg,4,0.7039
8,1,77,art,art_080.jpg,4,1.057
8,2,47,art,art_080.jpg,4,0.6519
9,1,54,art,art_080.jpg,7,1.3379
9,2,28,art,art_080.jpg,7,0.8138
10,1,82,art,art_080.jpg,3,0.4804
10,2,56,art,art_080.jpg,4,0.5716
11,1,39,art,art_080.jpg,6,1.729
11,2,91,art,art_080.jpg,5,1.7201
12,1,19,art,art_080.jpg,6,0.9554
12,2,71,art,art_080.jpg,4,0.4901
13,1,69,art,art_080.jpg,4,1.8948
13,2,77,art,art_080.jpg,7,0.7959
14,1,33,art,art_080.jpg,3,0.4972
14,2,41,art,art_080.jpg,2,0.6791
15,1,97,art,art_080.jpg,4,0.5629
15,2,92,art,art_080.jpg,6,1.0384
16,1,18,art,art_080.jpg,3,0.6823
16,2,13,art,art_080.jpg,2,0.6001
17,1,62,art,art_080.jpg,7,0.9048
17,2,18,art,art_080.jpg,6,0.8525
18,1,92,art,art_080.jpg,6,0.769
18,2,48,art,art_080.jpg,5,0.7116
19,1,50,art,art_080.jpg,4,0.4243
19,2,30,art,art_080.jpg,5,0.7237
20,1,80,art,art_080.jpg,6,2.1805
20,2,60,art,art_080.jpg,5,1.5752
21,1,66,art,art_080.jpg,5,1.0142
21,2,108,art,art_080.jpg,5,0.899
22,1,2,art,art_080.jpg,3,0.8396
22,2,44,art,art_080.jpg,4,0.4196
23,1,30,art,art_080.jpg,7,0.9774
23,2,20,art,art_080.jpg,7,0.8406
24,1,90,art,art_080.jpg,4,0.5963
24,2,80,art,art_080.jpg,5,0.6271
1,1,34,art,art_078.jpg,7,0.6598
1,2,4,art,art_078.jpg,6,0.736
2,1,87,art,art_078.jpg,6,1.0405
2,2,79,art,art_078.jpg,5,1.2851
3,1,92,art,art_078.jpg,2,0.8896
3,2,64,art,art_078.jpg,1,0.9783
4,1,46,art,art_078.jpg,7,0.7946
4,2,18,art,art_078.jpg,4,1.1842
5,1,24,art,art_078.jpg,4,0.653
5,2,80,art,art_078.jpg,4,0.7592
6,1,30,art,art_078.jpg,7,0.9873
6,2,86,art,art_078.jpg,7,0.8398
7,1,107,art,art_078.jpg,4,0.65
7,2,18,art,art_078.jpg,4,1.0385
8,1,92,art,art_078.jpg,3,2.3375
8,2,3,art,art_078.jpg,3,0.9456
9,1,55,art,art_078.jpg,7,0.8815
9,2,46,art,art_078.jpg,7,1.5717
10,1,64,art,art_078.jpg,2,0.5774
10,2,55,art,art_078.jpg,2,0.5539
11,1,62,art,art_078.jpg,6,0.745
11,2,52,art,art_078.jpg,5,1.3161
12,1,58,art,art_078.jpg,7,0.718
12,2,48,art,art_078.jpg,5,0.6243
13,1,21,art,art_078.jpg,7,2.0652
13,2,18,art,art_078.jpg,7,0.8689
14,1,92,art,art_078.jpg,4,0.7622
14,2,89,art,art_078.jpg,5,0.6528
15,1,19,art,art_078.jpg,5,0.9001
15,2,93,art,art_078.jpg,6,0.6881
16,1,17,art,art_078.jpg,4,0.6322
16,2,91,art,art_078.jpg,3,0.5604
17,1,4,art,art_078.jpg,7,1.7287
17,2,104,art,art_078.jpg,6,1.012
18,1,6,art,art_078.jpg,6,0.7053
18,2,106,art,art_078.jpg,5,2.043
19,1,91,art,art_078.jpg,5,0.665
19,2,94,art,art_078.jpg,5,0.491
20,1,16,art,art_078.jpg,7,0.9515
20,2,19,art,art_078.jpg,7,1.1201
21,1,91,art,art_078.jpg,6,2.1835
21,2,95,art,art_078.jpg,3,0.8033
22,1,15,art,art_078.jpg,4,1.0397
22,2,19,art,art_078.jpg,5,0.5323
23,1,66,art,art_078.jpg,2,0.8134
23,2,27,art,art_078.jpg,7,1.4677
24,1,83,art,art_078.jpg,5,0.7152
24,2,44,art,art_078.jpg,5,0.6106
1,1,35,art,art_091.jpg,4,1.0407
1,2,103,art,art_091.jpg,4,0.6582
2,1,109,art,art_091.jpg,3,0.9276
2,2,47,art,art_091.jpg,3,1.0955
3,1,58,art,art_091.jpg,1,1.1756
3,2,23,art,art_091.jpg,1,1.0214
4,1,87,art,art_091.jpg,4,10.96
4,2,52,art,art_091.jpg,4,2.3067
5,1,67,art,art_091.jpg,1,0.8922
5,2,46,art,art_091.jpg,2,1.886
6,1,64,art,art_091.jpg,4,2.8052
6,2,43,art,art_091.jpg,5,1.0773
7,1,61,art,art_091.jpg,2,0.7649
7,2,35,art,art_091.jpg,1,0.897
8,1,75,art,art_091.jpg,2,0.8765
8,2,49,art,art_091.jpg,2,0.6823
9,1,36,art,art_091.jpg,5,1.6331
9,2,70,art,art_091.jpg,4,0.9294
10,1,40,art,art_091.jpg,2,0.4329
10,2,74,art,art_091.jpg,3,0.8343
11,1,53,art,art_091.jpg,6,1.3536
11,2,62,art,art_091.jpg,5,3.9634
12,1,48,art,art_091.jpg,4,0.4991
12,2,57,art,art_091.jpg,2,1.2818
13,1,40,art,art_091.jpg,1,0.9668
13,2,7,art,art_091.jpg,2,0.7921
14,1,103,art,art_091.jpg,5,0.8008
14,2,70,art,art_091.jpg,4,0.3521
15,1,58,art,art_091.jpg,4,2.0114
15,2,39,art,art_091.jpg,4,0.492
16,1,71,art,art_091.jpg,1,0.5947
16,2,52,art,art_091.jpg,1,0.7387
17,1,45,art,art_091.jpg,1,0.849
17,2,15,art,art_091.jpg,2,0.7341
18,1,95,art,art_091.jpg,6,0.6844
18,2,65,art,art_091.jpg,5,0.5157
19,1,97,art,art_091.jpg,4,1.347
19,2,105,art,art_091.jpg,2,0.9534
20,1,5,art,art_091.jpg,4,0.8353
20,2,13,art,art_091.jpg,6,1.1688
21,1,78,art,art_091.jpg,4,0.8658
21,2,96,art,art_091.jpg,3,0.9038
22,1,14,art,art_091.jpg,3,0.7232
22,2,32,art,art_091.jpg,3,0.9229
23,1,94,art,art_091.jpg,2,0.5267
23,2,55,art,art_091.jpg,2,0.7085
24,1,55,art,art_091.jpg,2,0.8548
24,2,16,art,art_091.jpg,2,0.8484
1,1,36,art,art_047.jpg,6,1.2305
1,2,8,art,art_047.jpg,5,1.0067
2,1,107,art,art_047.jpg,6,0.9599
2,2,48,art,art_047.jpg,6,1.6152
3,1,26,art,art_047.jpg,1,1.4095
3,2,22,art,art_047.jpg,2,0.9692
4,1,88,art,art_047.jpg,6,0.5602
4,2,84,art,art_047.jpg,6,0.3689
5,1,84,art,art_047.jpg,2,1.5256
5,2,20,art,art_047.jpg,2,1.2534
6,1,90,art,art_047.jpg,3,0.897
6,2,26,art,art_047.jpg,4,2.3617
7,1,13,art,art_047.jpg,2,0.8815
7,2,21,art,art_047.jpg,4,1.1485
8,1,89,art,art_047.jpg,4,0.7131
8,2,97,art,art_047.jpg,5,0.8117
9,1,37,art,art_047.jpg,6,1.4432
9,2,103,art,art_047.jpg,7,0.8641
10,1,7,art,art_047.jpg,2,1.0391
10,2,73,art,art_047.jpg,2,0.5392
11,1,22,art,art_047.jpg,3,0.7589
11,2,50,art,art_047.jpg,2,0.5705
12,1,60,art,art_047.jpg,2,0.8392
12,2,88,art,art_047.jpg,3,0.652
13,1,68,art,art_047.jpg,1,0.9037
13,2,80,art,art_047.jpg,6,1.0127
14,1,30,art,art_047.jpg,6,0.9152
14,2,42,art,art_047.jpg,5,2.9132
15,1,3,art,art_047.jpg,5,1.0473
15,2,12,art,art_047.jpg,6,0.6499
16,1,98,art,art_047.jpg,2,0.6985
16,2,107,art,art_047.jpg,2,0.5758
17,1,91,art,art_047.jpg,5,0.9282
17,2,41,art,art_047.jpg,4,0.6096
18,1,69,art,art_047.jpg,4,0.7614
18,2,19,art,art_047.jpg,1,0.957
19,1,63,art,art_047.jpg,6,0.7376
19,2,12,art,art_047.jpg,6,1.2896
20,1,98,art,art_047.jpg,5,0.9193
20,2,47,art,art_047.jpg,5,4.1152
21,1,27,art,art_047.jpg,6,0.9402
21,2,99,art,art_047.jpg,6,1.2409
22,1,11,art,art_047.jpg,4,1.3386
22,2,83,art,art_047.jpg,6,0.9545
23,1,34,art,art_047.jpg,7,0.8769
23,2,74,art,art_047.jpg,7,0.693
24,1,36,art,art_047.jpg,7,0.9171
24,2,76,art,art_047.jpg,7,0.8528
1,1,37,art,art_086.jpg,5,0.7774
1,2,104,art,art_086.jpg,5,0.8495
2,1,43,art,art_086.jpg,5,1.2255
2,2,29,art,art_086.jpg,5,1.447
3,1,15,art,art_086.jpg,1,1.2243
3,2,98,art,art_086.jpg,1,0.9875
4,1,12,art,art_086.jpg,4,0.8154
4,2,95,art,art_086.jpg,4,0.4237
5,1,71,art,art_086.jpg,1,0.9081
5,2,5,art,art_086.jpg,1,0.793
6,1,105,art,art_086.jpg,5,1.1643
6,2,39,art,art_086.jpg,4,0.7705
7,1,2,art,art_086.jpg,4,0.7072
7,2,13,art,art_086.jpg,1,0.8975
8,1,97,art,art_086.jpg,2,0.853
8,2,108,art,art_086.jpg,2,1.4734
9,1,71,art,art_086.jpg,6,0.7566
9,2,7,art,art_086.jpg,7,0.9935
10,1,103,art,art_086.jpg,3,0.4049
10,2,39,art,art_086.jpg,3,0.5228
11,1,28,art,art_086.jpg,2,0.6997
11,2,107,art,art_086.jpg,2,1.0025
12,1,3,art,art_086.jpg,3,1.6264
12,2,82,art,art_086.jpg,5,0.6188
13,1,34,art,art_086.jpg,1,0.7347
13,2,23,art,art_086.jpg,4,2.8261
14,1,87,art,art_086.jpg,2,0.8436
14,2,76,art,art_086.jpg,3,0.6446
15,1,100,art,art_086.jpg,6,0.8675
15,2,77,art,art_086.jpg,5,0.602
16,1,33,art,art_086.jpg,7,0.8292
16,2,10,art,art_086.jpg,6,0.8025
17,1,77,art,art_086.jpg,5,0.8339
17,2,25,art,art_086.jpg,5,0.659
18,1,85,art,art_086.jpg,4,0.6214
18,2,33,art,art_086.jpg,3,0.6348
19,1,37,art,art_086.jpg,4,0.7325
19,2,27,art,art_086.jpg,4,1.3122
20,1,83,art,art_086.jpg,7,1.2433
20,2,73,art,art_086.jpg,5,1.2338
21,1,68,art,art_086.jpg,5,1.2503
21,2,75,art,art_086.jpg,4,1.295
22,1,35,art,art_086.jpg,5,0.512
22,2,42,art,art_086.jpg,6,0.7891
23,1,75,art,art_086.jpg,6,1.2197
23,2,8,art,art_086.jpg,6,0.7924
24,1,102,art,art_086.jpg,4,0.452
24,2,35,art,art_086.jpg,3,0.5273
1,1,38,art,art_067.jpg,5,1.1083
1,2,62,art,art_067.jpg,5,6.3647
2,1,64,art,art_067.jpg,4,1.7171
2,2,97,art,art_067.jpg,4,0.8397
3,1,74,art,art_067.jpg,4,0.6986
3,2,16,art,art_067.jpg,4,0.8849
4,1,94,art,art_067.jpg,3,0.5377
4,2,36,art,art_067.jpg,5,0.5847
5,1,27,art,art_067.jpg,1,1.3709
5,2,13,art,art_067.jpg,1,0.994
6,1,97,art,art_067.jpg,7,0.9483
6,2,83,art,art_067.jpg,6,1.3133
7,1,79,art,art_067.jpg,5,2.0087
7,2,49,art,art_067.jpg,5,1.0329
8,1,61,art,art_067.jpg,3,0.8129
8,2,31,art,art_067.jpg,3,0.584
9,1,41,art,art_067.jpg,6,0.8103
9,2,5,art,art_067.jpg,5,0.6989
10,1,105,art,art_067.jpg,4,3.1692
10,2,69,art,art_067.jpg,3,1.6355
11,1,69,art,art_067.jpg,7,1.2695
11,2,4,art,art_067.jpg,7,0.7356
12,1,106,art,art_067.jpg,3,1.2804
12,2,41,art,art_067.jpg,3,1.0429
13,1,103,art,art_067.jpg,1,0.8067
13,2,38,art,art_067.jpg,1,0.8774
14,1,72,art,art_067.jpg,4,1.036
14,2,7,art,art_067.jpg,2,0.6751
15,1,75,art,art_067.jpg,4,0.6632
15,2,49,art,art_067.jpg,4,0.4205
16,1,61,art,art_067.jpg,3,0.5294
16,2,35,art,art_067.jpg,4,1.1247
17,1,22,art,art_067.jpg,3,1.203
17,2,89,art,art_067.jpg,2,0.7277
18,1,21,art,art_067.jpg,6,0.9481
18,2,88,art,art_067.jpg,6,0.892
19,1,108,art,art_067.jpg,5,0.8843
19,2,53,art,art_067.jpg,5,0.7516
20,1,57,art,art_067.jpg,7,1.1137
20,2,2,art,art_067.jpg,7,0.7545
21,1,74,art,art_067.jpg,4,0.9318
21,2,103,art,art_067.jpg,5,0.8597
22,1,7,art,art_067.jpg,2,0.6557
22,2,36,art,art_067.jpg,2,0.8829
23,1,40,art,art_067.jpg,6,0.7782
23,2,84,art,art_067.jpg,3,0.6643
24,1,26,art,art_067.jpg,5,1.438
24,2,70,art,art_067.jpg,6,0.8774
1,1,39,art,art_046.jpg,5,0.8235
1,2,105,art,art_046.jpg,3,1.9595
2,1,84,art,art_046.jpg,5,0.8837
2,2,2,art,art_046.jpg,4,2.097
3,1,52,art,art_046.jpg,4,1.1787
3,2,25,art,art_046.jpg,3,0.7328
4,1,85,art,art_046.jpg,5,0.591
4,2,58,art,art_046.jpg,5,12.2079
5,1,64,art,art_046.jpg,1,0.9768
5,2,9,art,art_046.jpg,1,1.4121
6,1,101,art,art_046.jpg,3,0.6843
6,2,46,art,art_046.jpg,4,3.5266
7,1,53,art,art_046.jpg,1,0.7093
7,2,29,art,art_046.jpg,1,0.6636
8,1,81,art,art_046.jpg,4,1.1048
8,2,57,art,art_046.jpg,4,0.602
9,1,83,art,art_046.jpg,6,0.7542
9,2,98,art,art_046.jpg,6,0.915
10,1,12,art,art_046.jpg,5,0.5377
10,2,27,art,art_046.jpg,6,1.0808
11,1,51,art,art_046.jpg,1,1.3329
11,2,76,art,art_046.jpg,3,0.6331
12,1,34,art,art_046.jpg,4,0.7377
12,2,59,art,art_046.jpg,2,0.5922
13,1,50,art,art_046.jpg,1,1.0905
13,2,83,art,art_046.jpg,1,0.8186
14,1,27,art,art_046.jpg,3,1.1245
14,2,60,art,art_046.jpg,2,0.7443
15,1,88,art,art_046.jpg,4,1.1072
15,2,70,art,art_046.jpg,2,1.61
16,1,40,art,art_046.jpg,3,1.2603
16,2,22,art,art_046.jpg,2,3.5992
17,1,78,art,art_046.jpg,4,0.6675
17,2,51,art,art_046.jpg,4,0.5941
18,1,59,art,art_046.jpg,1,1.0932
18,2,32,art,art_046.jpg,1,0.7079
19,1,89,art,art_046.jpg,4,0.565
19,2,33,art,art_046.jpg,4,0.484
20,1,77,art,art_046.jpg,1,0.8329
20,2,21,art,art_046.jpg,4,0.6924
21,1,108,art,art_046.jpg,5,2.4577
21,2,2,art,art_046.jpg,3,3.6306
22,1,108,art,art_046.jpg,5,1.6649
22,2,2,art,art_046.jpg,6,0.8748
23,1,106,art,art_046.jpg,3,1.4368
23,2,52,art,art_046.jpg,2,0.9054
24,1,58,art,art_046.jpg,1,1.6502
24,2,4,art,art_046.jpg,1,0.8351
1,1,40,art,art_101.jpg,5,0.9829
1,2,95,art,art_101.jpg,4,3.8444
2,1,30,art,art_101.jpg,4,2.3003
2,2,27,art,art_101.jpg,4,0.9201
3,1,99,art,art_101.jpg,3,0.901
3,2,45,art,art_101.jpg,3,0.8542
4,1,65,art,art_101.jpg,6,0.6603
4,2,11,art,art_101.jpg,4,0.6252
5,1,98,art,art_101.jpg,2,0.8321
5,2,14,art,art_101.jpg,1,1.1158
6,1,96,art,art_101.jpg,1,0.7354
6,2,12,art,art_101.jpg,2,1.4335
7,1,106,art,art_101.jpg,5,1.3786
7,2,60,art,art_101.jpg,5,0.7033
8,1,50,art,art_101.jpg,3,0.8102
8,2,4,art,art_101.jpg,2,0.6493
9,1,77,art,art_101.jpg,5,0.4945
9,2,65,art,art_101.jpg,6,0.7281
10,1,45,art,art_101.jpg,4,0.5999
10,2,33,art,art_101.jpg,4,0.3808
11,1,4,art,art_101.jpg,5,1.0712
11,2,28,art,art_101.jpg,2,1.2642
12,1,82,art,art_101.jpg,4,0.8265
12,2,106,art,art_101.jpg,4,0.5505
13,1,94,art,art_101.jpg,2,2.9366
13,2,53,art,art_101.jpg,2,0.7853
14,1,57,art,art_101.jpg,6,0.9711
14,2,16,art,art_101.jpg,6,0.6484
15,1,40,art,art_101.jpg,4,1.914
15,2,97,art,art_101.jpg,3,0.4905
16,1,13,art,art_101.jpg,7,0.5838
16,2,70,art,art_101.jpg,7,0.9319
17,1,57,art,art_101.jpg,4,0.6762
17,2,79,art,art_101.jpg,3,1.4407
18,1,31,art,art_101.jpg,7,0.8892
18,2,53,art,art_101.jpg,7,0.8628
19,1,9,art,art_101.jpg,2,0.5862
19,2,109,art,art_101.jpg,4,0.5745
20,1,1,art,art_101.jpg,2,1.9409
20,2,101,art,art_101.jpg,2,0.7799
21,1,94,art,art_101.jpg,3,8.122
21,2,1,art,art_101.jpg,3,4.5951
22,1,109,art,art_101.jpg,5,0.6168
22,2,16,art,art_101.jpg,6,0.7425
23,1,16,art,art_101.jpg,3,1.4255
23,2,101,art,art_101.jpg,2,0.6954
24,1,9,art,art_101.jpg,5,0.6476
24,2,94,art,art_101.jpg,2,0.6567
1,1,41,art,art_035.jpg,6,1.0716
1,2,18,art,art_035.jpg,4,0.8946
2,1,60,art,art_035.jpg,4,1.5828
2,2,83,art,art_035.jpg,4,0.813
3,1,101,art,art_035.jpg,4,1.2596
3,2,40,art,art_035.jpg,4,0.7372
4,1,70,art,art_035.jpg,5,1.7114
4,2,9,art,art_035.jpg,4,1.008
5,1,20,art,art_035.jpg,1,0.7067
5,2,68,art,art_035.jpg,1,1.7054
6,1,42,art,art_035.jpg,4,0.8564
6,2,90,art,art_035.jpg,4,1.9528
7,1,23,art,art_035.jpg,2,0.8886
7,2,85,art,art_035.jpg,1,0.7611
8,1,25,art,art_035.jpg,4,0.9872
8,2,87,art,art_035.jpg,3,0.5064
9,1,40,art,art_035.jpg,6,1.427
9,2,32,art,art_035.jpg,7,0.9387
10,1,78,art,art_035.jpg,2,0.5579
10,2,70,art,art_035.jpg,3,0.3734
11,1,42,art,art_035.jpg,3,0.845
11,2,101,art,art_035.jpg,2,0.7951
12,1,9,art,art_035.jpg,4,1.1295
12,2,68,art,art_035.jpg,3,0.9745
13,1,46,art,art_035.jpg,7,1.128
13,2,70,art,art_035.jpg,5,0.6802
14,1,40,art,art_035.jpg,2,0.5941
14,2,64,art,art_035.jpg,2,0.6809
15,1,53,art,art_035.jpg,2,0.668
15,2,36,art,art_035.jpg,3,0.6431
16,1,74,art,art_035.jpg,2,0.9795
16,2,57,art,art_035.jpg,1,0.6422
17,1,20,art,art_035.jpg,4,0.6446
17,2,91,art,art_035.jpg,5,0.8676
18,1,19,art,art_035.jpg,5,1.8371
18,2,90,art,art_035.jpg,5,0.6425
19,1,38,art,art_035.jpg,4,0.6642
19,2,48,art,art_035.jpg,3,1.2165
20,1,62,art,art_035.jpg,5,0.8042
20,2,72,art,art_035.jpg,6,2.2927
21,1,51,art,art_035.jpg,5,1.0512
21,2,5,art,art_035.jpg,4,0.8403
22,1,105,art,art_035.jpg,3,0.6378
22,2,59,art,art_035.jpg,2,0.6026
23,1,28,art,art_035.jpg,6,0.6642
23,2,85,art,art_035.jpg,7,0.7597
24,1,25,art,art_035.jpg,7,0.5694
24,2,82,art,art_035.jpg,7,0.695
1,1,42,art,art_031.jpg,5,3.2087
1,2,68,art,art_031.jpg,5,2.3018
2,1,83,art,art_031.jpg,3,1.5936
2,2,39,art,art_031.jpg,3,1.2531
3,1,107,art,art_031.jpg,6,1.0905
3,2,42,art,art_031.jpg,6,0.8878
4,1,68,art,art_031.jpg,5,1.8477
4,2,3,art,art_031.jpg,5,0.6727
5,1,31,art,art_031.jpg,2,0.8273
5,2,101,art,art_031.jpg,2,0.8573
6,1,9,art,art_031.jpg,7,1.4404
6,2,79,art,art_031.jpg,5,0.6045
7,1,45,art,art_031.jpg,1,0.6643
7,2,50,art,art_031.jpg,1,1.163
8,1,60,art,art_031.jpg,3,1.1949
8,2,65,art,art_031.jpg,2,1.1935
9,1,39,art,art_031.jpg,5,1.7923
9,2,72,art,art_031.jpg,5,0.8695
10,1,38,art,art_031.jpg,7,0.6132
10,2,71,art,art_031.jpg,7,0.834
11,1,49,art,art_031.jpg,4,1.2243
11,2,88,art,art_031.jpg,1,0.7883
12,1,22,art,art_031.jpg,5,1.1296
12,2,61,art,art_031.jpg,4,0.5961
13,1,9,art,art_031.jpg,1,0.8719
13,2,2,art,art_031.jpg,1,1.1735
14,1,108,art,art_031.jpg,2,0.7123
14,2,101,art,art_031.jpg,2,0.7262
15,1,81,art,art_031.jpg,4,0.8828
15,2,48,art,art_031.jpg,3,0.7812
16,1,62,art,art_031.jpg,3,2.1737
16,2,29,art,art_031.jpg,2,0.6967
17,1,76,art,art_031.jpg,6,0.7515
17,2,96,art,art_031.jpg,3,2.7682
18,1,14,art,art_031.jpg,7,0.9441
18,2,34,art,art_031.jpg,7,0.7489
19,1,99,art,art_031.jpg,4,0.7141
19,2,100,art,art_031.jpg,4,0.5435
20,1,10,art,art_031.jpg,7,0.7689
20,2,11,art,art_031.jpg,7,1.0073
21,1,44,art,art_031.jpg,3,1.6758
21,2,38,art,art_031.jpg,3,34.1332
22,1,72,art,art_031.jpg,3,0.6412
22,2,66,art,art_031.jpg,3,0.8184
23,1,74,art,art_031.jpg,3,0.6803
23,2,24,art,art_031.jpg,5,0.6646
24,1,86,art,art_031.jpg,2,2.1693
24,2,36,art,art_031.jpg,2,1.2117
1,1,43,art,art_103.jpg,3,1.4868
1,2,22,art,art_103.jpg,3,0.9907
2,1,78,art,art_103.jpg,7,1.912
2,2,80,art,art_103.jpg,6,0.9939
3,1,22,art,art_103.jpg,4,0.9826
3,2,73,art,art_103.jpg,4,0.7037
4,1,37,art,art_103.jpg,2,0.8458
4,2,88,art,art_103.jpg,2,0.3924
5,1,61,art,art_103.jpg,1,0.8749
5,2,28,art,art_103.jpg,1,1.2539
6,1,82,art,art_103.jpg,6,1.0593
6,2,49,art,art_103.jpg,4,6.2038
7,1,102,art,art_103.jpg,5,1.458
7,2,102,art,art_103.jpg,5,0.8597
8,1,8,art,art_103.jpg,3,1.0203
8,2,8,art,art_103.jpg,3,1.038
9,1,51,art,art_103.jpg,6,0.8173
9,2,21,art,art_103.jpg,5,0.6687
10,1,89,art,art_103.jpg,6,0.6431
10,2,59,art,art_103.jpg,7,0.6894
11,1,16,art,art_103.jpg,3,1.0691
11,2,42,art,art_103.jpg,5,0.9003
12,1,68,art,art_103.jpg,2,0.9641
12,2,94,art,art_103.jpg,2,1.1629
13,1,84,art,art_103.jpg,4,1.1687
13,2,91,art,art_103.jpg,2,2.2938
14,1,19,art,art_103.jpg,7,0.5376
14,2,26,art,art_103.jpg,7,0.7268
15,1,68,art,art_103.jpg,6,1.1709
15,2,55,art,art_103.jpg,4,0.5119
16,1,55,art,art_103.jpg,1,0.904
16,2,42,art,art_103.jpg,1,0.6655
17,1,93,art,art_103.jpg,6,0.8227
17,2,90,art,art_103.jpg,5,0.7083
18,1,20,art,art_103.jpg,1,0.8474
18,2,17,art,art_103.jpg,1,0.7209
19,1,48,art,art_103.jpg,4,0.7695
19,2,49,art,art_103.jpg,4,0.608
20,1,61,art,art_103.jpg,4,0.6874
20,2,62,art,art_103.jpg,3,1.4785
21,1,39,art,art_103.jpg,6,0.8331
21,2,97,art,art_103.jpg,4,0.8232
22,1,13,art,art_103.jpg,3,0.5799
22,2,71,art,art_103.jpg,4,0.4631
23,1,52,art,art_103.jpg,4,1.0194
23,2,37,art,art_103.jpg,2,0.8023
24,1,73,art,art_103.jpg,1,2.4011
24,2,58,art,art_103.jpg,1,0.8973
1,1,44,art,art_054.jpg,4,1.2199
1,2,82,art,art_054.jpg,4,3.7164
2,1,81,art,art_054.jpg,3,1.2617
2,2,58,art,art_054.jpg,3,1.1998
3,1,50,art,art_054.jpg,3,0.9428
3,2,15,art,art_054.jpg,3,0.7226
4,1,95,art,art_054.jpg,4,0.537
4,2,60,art,art_054.jpg,4,6.7281
5,1,44,art,art_054.jpg,3,0.7238
5,2,19,art,art_054.jpg,3,0.9022
6,1,91,art,art_054.jpg,5,0.7362
6,2,66,art,art_054.jpg,6,7.5593
7,1,41,art,art_054.jpg,1,0.8508
7,2,64,art,art_054.jpg,2,1.1762
8,1,46,art,art_054.jpg,5,0.9983
8,2,69,art,art_054.jpg,5,0.6814
9,1,15,art,art_054.jpg,5,1.1287
9,2,30,art,art_054.jpg,5,1.0227
10,1,80,art,art_054.jpg,3,0.8415
10,2,95,art,art_054.jpg,3,0.8586
11,1,72,art,art_054.jpg,5,0.9478
11,2,69,art,art_054.jpg,4,0.451
12,1,41,art,art_054.jpg,3,0.5364
12,2,38,art,art_054.jpg,3,0.8421
13,1,59,art,art_054.jpg,1,1.0355
13,2,29,art,art_054.jpg,1,0.9807
14,1,81,art,art_054.jpg,2,1.6016
14,2,51,art,art_054.jpg,2,2.0169
15,1,21,art,art_054.jpg,2,1.1391
15,2,81,art,art_054.jpg,2,0.6203
16,1,29,art,art_054.jpg,4,0.6242
16,2,89,art,art_054.jpg,2,1.0843
17,1,16,art,art_054.jpg,5,0.9139
17,2,102,art,art_054.jpg,6,2.1833
18,1,8,art,art_054.jpg,1,1.1684
18,2,94,art,art_054.jpg,1,1.1386
19,1,43,art,art_054.jpg,4,0.634
19,2,97,art,art_054.jpg,3,0.636
20,1,13,art,art_054.jpg,2,1.0815
20,2,67,art,art_054.jpg,2,0.9305
21,1,45,art,art_054.jpg,3,0.7502
21,2,6,art,art_054.jpg,3,1.6743
22,1,104,art,art_054.jpg,5,0.8893
22,2,65,art,art_054.jpg,5,0.4728
23,1,18,art,art_054.jpg,4,2.1073
23,2,80,art,art_054.jpg,3,1.0134
24,1,30,art,art_054.jpg,2,1.0595
24,2,92,art,art_054.jpg,1,0.8423
1,1,45,art,art_058.jpg,5,1.2055
1,2,57,art,art_058.jpg,5,2.3014
2,1,36,art,art_058.jpg,3,2.7258
2,2,107,art,art_058.jpg,3,0.7958
3,1,48,art,art_058.jpg,4,0.731
3,2,88,art,art_058.jpg,4,0.516
4,1,22,art,art_058.jpg,5,0.9285
4,2,62,art,art_058.jpg,5,0.4448
5,1,89,art,art_058.jpg,1,0.9949
5,2,65,art,art_058.jpg,2,1.0643
6,1,45,art,art_058.jpg,4,0.5953
6,2,21,art,art_058.jpg,4,0.868
7,1,30,art,art_058.jpg,1,1.3639
7,2,71,art,art_058.jpg,2,0.465
8,1,39,art,art_058.jpg,3,1.5629
8,2,80,art,art_058.jpg,3,0.8422
9,1,43,art,art_058.jpg,4,0.4676
9,2,90,art,art_058.jpg,5,0.8033
10,1,20,art,art_058.jpg,2,0.8281
10,2,67,art,art_058.jpg,2,1.1643
11,1,78,art,art_058.jpg,1,1.1941
11,2,1,art,art_058.jpg,2,0.7607
12,1,109,art,art_058.jpg,2,0.9074
12,2,32,art,art_058.jpg,3,1.0656
13,1,86,art,art_058.jpg,1,1.6234
13,2,85,art,art_058.jpg,1,0.82
14,1,25,art,art_058.jpg,2,1.2138
14,2,24,art,art_058.jpg,2,0.8004
15,1,52,art,art_058.jpg,2,0.9139
15,2,46,art,art_058.jpg,2,0.6386
16,1,64,art,art_058.jpg,2,0.9463
16,2,58,art,art_058.jpg,2,0.7641
17,1,108,art,art_058.jpg,1,0.7329
17,2,19,art,art_058.jpg,2,0.705
18,1,91,art,art_058.jpg,2,0.9192
18,2,2,art,art_058.jpg,2,1.0003
19,1,98,art,art_058.jpg,3,1.5463
19,2,62,art,art_058.jpg,2,0.8518
20,1,48,art,art_058.jpg,7,1.3961
20,2,12,art,art_058.jpg,6,1.0922
21,1,61,art,art_058.jpg,5,1.0441
21,2,85,art,art_058.jpg,6,2.2428
22,1,25,art,art_058.jpg,3,0.8194
22,2,49,art,art_058.jpg,3,0.6076
23,1,39,art,art_058.jpg,5,0.88
23,2,64,art,art_058.jpg,4,2.8097
24,1,46,art,art_058.jpg,5,0.7546
24,2,71,art,art_058.jpg,5,0.6074
1,1,46,art,art_093.jpg,4,0.9609
1,2,9,art,art_093.jpg,5,1.5318
2,1,14,art,art_093.jpg,4,1.7098
2,2,85,art,art_093.jpg,3,0.937
3,1,66,art,art_093.jpg,2,1.0373
3,2,84,art,art_093.jpg,1,0.9878
4,1,26,art,art_093.jpg,5,0.5607
4,2,44,art,art_093.jpg,4,10.1456
5,1,81,art,art_093.jpg,1,1.8014
5,2,104,art,art_093.jpg,2,1.0802
6,1,6,art,art_093.jpg,5,1.3915
6,2,29,art,art_093.jpg,5,1.0151
7,1,20,art,art_093.jpg,1,0.853
7,2,68,art,art_093.jpg,1,0.8268
8,1,42,art,art_093.jpg,2,0.6628
8,2,90,art,art_093.jpg,2,0.664
9,1,81,art,art_093.jpg,7,0.665
9,2,31,art,art_093.jpg,4,1.0063
10,1,79,art,art_093.jpg,3,0.4799
10,2,29,art,art_093.jpg,3,0.5222
11,1,36,art,art_093.jpg,6,0.9779
11,2,13,art,art_093.jpg,5,1.9212
12,1,97,art,art_093.jpg,4,0.4981
12,2,74,art,art_093.jpg,4,1.0371
13,1,79,art,art_093.jpg,4,1.2728
13,2,109,art,art_093.jpg,4,0.5351
14,1,1,art,art_093.jpg,5,1.8441
14,2,31,art,art_093.jpg,5,0.6273
15,1,77,art,art_093.jpg,6,1.0912
15,2,105,art,art_093.jpg,5,0.511
16,1,5,art,art_093.jpg,4,0.7292
16,2,33,art,art_093.jpg,2,0.8915
17,1,51,art,art_093.jpg,3,0.8239
17,2,7,art,art_093.jpg,4,0.8007
18,1,103,art,art_093.jpg,7,0.8421
18,2,59,art,art_093.jpg,7,0.8663
19,1,103,art,art_093.jpg,2,1.378
19,2,103,art,art_093.jpg,2,1.0987
20,1,7,art,art_093.jpg,6,0.8477
20,2,7,art,art_093.jpg,5,0.6255
21,1,83,art,art_093.jpg,6,0.7157
21,2,82,art,art_093.jpg,4,0.5967
22,1,28,art,art_093.jpg,2,2.0654
22,2,27,art,art_093.jpg,2,0.5692
23,1,81,art,art_093.jpg,2,0.6619
23,2,102,art,art_093.jpg,2,0.892
24,1,8,art,art_093.jpg,2,0.7099
24,2,29,art,art_093.jpg,1,1.5764
1,1,47,art,art_043.jpg,3,0.5662
1,2,13,art,art_043.jpg,3,1.7794
2,1,22,art,art_043.jpg,3,1.181
2,2,93,art,art_043.jpg,3,1.0317
3,1,77,art,art_043.jpg,5,0.7674
3,2,51,art,art_043.jpg,6,0.6321
4,1,59,art,art_043.jpg,5,0.6137
4,2,33,art,art_043.jpg,5,1.0905
5,1,86,art,art_043.jpg,6,1.6875
5,2,72,art,art_043.jpg,2,1.1432
6,1,38,art,art_043.jpg,5,1.0243
6,2,24,art,art_043.jpg,4,1.4694
7,1,67,art,art_043.jpg,1,1.153
7,2,99,art,art_043.jpg,1,0.7447
8,1,11,art,art_043.jpg,5,1.0971
8,2,43,art,art_043.jpg,5,0.6653
9,1,35,art,art_043.jpg,5,1.0654
9,2,52,art,art_043.jpg,5,0.8914
10,1,58,art,art_043.jpg,3,0.4885
10,2,75,art,art_043.jpg,3,1.0915
11,1,11,art,art_043.jpg,5,0.931
11,2,95,art,art_043.jpg,5,0.7533
12,1,15,art,art_043.jpg,4,1.1176
12,2,99,art,art_043.jpg,5,2.2022
13,1,106,art,art_043.jpg,1,0.8319
13,2,34,art,art_043.jpg,1,1.0259
14,1,76,art,art_043.jpg,3,1.7512
14,2,4,art,art_043.jpg,2,1.5674
15,1,1,art,art_043.jpg,5,1.4504
15,2,11,art,art_043.jpg,3,0.7069
16,1,99,art,art_043.jpg,6,0.7459
16,2,109,art,art_043.jpg,6,0.7637
17,1,26,art,art_043.jpg,4,0.6325
17,2,48,art,art_043.jpg,5,0.7883
18,1,62,art,art_043.jpg,1,0.7525
18,2,84,art,art_043.jpg,1,0.756
19,1,107,art,art_043.jpg,3,0.6214
19,2,52,art,art_043.jpg,4,0.8965
20,1,58,art,art_043.jpg,2,0.6596
20,2,3,art,art_043.jpg,3,1.0525
21,1,2,art,art_043.jpg,4,3.1995
21,2,58,art,art_043.jpg,4,0.6992
22,1,52,art,art_043.jpg,5,0.6998
22,2,108,art,art_043.jpg,5,0.6324
23,1,83,art,art_043.jpg,3,1.0714
23,2,45,art,art_043.jpg,3,0.6969
24,1,65,art,art_043.jpg,4,0.4755
24,2,27,art,art_043.jpg,1,0.7429
1,1,48,art,art_029.jpg,5,0.7551
1,2,46,art,art_029.jpg,5,3.2401
2,1,29,art,art_029.jpg,3,1.1414
2,2,20,art,art_029.jpg,3,1.5313
3,1,30,art,art_029.jpg,6,0.8789
3,2,20,art,art_029.jpg,6,1.0236
4,1,90,art,art_029.jpg,4,0.7107
4,2,80,art,art_029.jpg,1,0.9642
5,1,63,art,art_029.jpg,4,0.7455
5,2,63,art,art_029.jpg,5,0.6685
6,1,47,art,art_029.jpg,2,1.9699
6,2,47,art,art_029.jpg,4,11.036
7,1,91,art,art_029.jpg,1,1.1924
7,2,63,art,art_029.jpg,2,1.0918
8,1,47,art,art_029.jpg,4,2.8726
8,2,19,art,art_029.jpg,4,0.8319
9,1,104,art,art_029.jpg,5,1.1156
9,2,56,art,art_029.jpg,5,0.95
10,1,54,art,art_029.jpg,4,1.1741
10,2,6,art,art_029.jpg,4,1.4704
11,1,90,art,art_029.jpg,4,1.165
11,2,51,art,art_029.jpg,5,1.167
12,1,59,art,art_029.jpg,7,0.7039
12,2,20,art,art_029.jpg,5,4.1054
13,1,74,art,art_029.jpg,4,1.2735
13,2,41,art,art_029.jpg,1,0.8674
14,1,69,art,art_029.jpg,4,0.5463
14,2,36,art,art_029.jpg,3,0.3861
15,1,62,art,art_029.jpg,4,1.6835
15,2,59,art,art_029.jpg,3,0.5756
16,1,51,art,art_029.jpg,5,0.7762
16,2,48,art,art_029.jpg,4,1.7386
17,1,85,art,art_029.jpg,5,0.9
17,2,94,art,art_029.jpg,5,0.7139
18,1,16,art,art_029.jpg,6,0.7778
18,2,25,art,art_029.jpg,4,0.8751
19,1,73,art,art_029.jpg,5,0.7633
19,2,75,art,art_029.jpg,5,1.1259
20,1,35,art,art_029.jpg,1,1.0336
20,2,37,art,art_029.jpg,1,0.8762
21,1,23,art,art_029.jpg,4,1.42
21,2,93,art,art_029.jpg,3,1.1074
22,1,17,art,art_029.jpg,3,0.8835
22,2,87,art,art_029.jpg,3,0.6236
23,1,14,art,art_029.jpg,4,0.936
23,2,32,art,art_029.jpg,3,0.6644
24,1,78,art,art_029.jpg,2,1.0174
24,2,96,art,art_029.jpg,1,0.7759
1,1,49,art,art_095.jpg,4,0.6862
1,2,44,art,art_095.jpg,5,1.6044
2,1,58,art,art_095.jpg,5,1.0487
2,2,37,art,art_095.jpg,3,1.2077
3,1,83,art,art_095.jpg,3,1.0096
3,2,30,art,art_095.jpg,2,1.1238
4,1,80,art,art_095.jpg,4,0.9693
4,2,27,art,art_095.jpg,5,1.9108
5,1,96,art,art_095.jpg,1,0.8891
5,2,43,art,art_095.jpg,2,1.7375
6,1,67,art,art_095.jpg,4,0.6755
6,2,14,art,art_095.jpg,4,0.7126
7,1,44,art,art_095.jpg,1,0.9048
7,2,78,art,art_095.jpg,1,0.8723
8,1,32,art,art_095.jpg,1,0.8474
8,2,66,art,art_095.jpg,1,0.6357
9,1,68,art,art_095.jpg,4,0.6412
9,2,18,art,art_095.jpg,4,0.5566
10,1,92,art,art_095.jpg,4,0.593
10,2,42,art,art_095.jpg,4,0.4566
11,1,97,art,art_095.jpg,1,0.7797
11,2,14,art,art_095.jpg,1,1.2355
12,1,96,art,art_095.jpg,3,0.7921
12,2,13,art,art_095.jpg,3,0.6827
13,1,78,art,art_095.jpg,1,1.0173
13,2,93,art,art_095.jpg,1,0.8957
14,1,17,art,art_095.jpg,2,0.5843
14,2,32,art,art_095.jpg,1,0.5864
15,1,92,art,art_095.jpg,5,1.4675
15,2,33,art,art_095.jpg,5,0.8482
16,1,77,art,art_095.jpg,1,0.7232
16,2,18,art,art_095.jpg,1,0.8552
17,1,46,art,art_095.jpg,1,0.9101
17,2,3,art,art_095.jpg,1,0.8215
18,1,107,art,art_095.jpg,3,0.6738
18,2,64,art,art_095.jpg,4,1.015
19,1,1,art,art_095.jpg,4,1.7668
19,2,35,art,art_095.jpg,5,0.5065
20,1,75,art,art_095.jpg,5,1.6125
20,2,109,art,art_095.jpg,6,0.7251
21,1,60,art,art_095.jpg,4,1.5885
21,2,35,art,art_095.jpg,3,5.6809
22,1,75,art,art_095.jpg,6,0.7786
22,2,50,art,art_095.jpg,6,0.5723
23,1,35,art,art_095.jpg,2,0.9507
23,2,96,art,art_095.jpg,2,0.7922
24,1,14,art,art_095.jpg,1,1.0813
24,2,75,art,art_095.jpg,1,3.914
1,1,50,art,art_063.jpg,4,1.4595
1,2,16,art,art_063.jpg,5,1.9927
2,1,50,art,art_063.jpg,3,1.1941
2,2,41,art,art_063.jpg,3,1.3429
3,1,27,art,art_063.jpg,3,0.8463
3,2,4,art,art_063.jpg,4,0.7086
4,1,106,art,art_063.jpg,4,0.4599
4,2,83,art,art_063.jpg,2,0.4658
5,1,104,art,art_063.jpg,1,1.3371
5,2,108,art,art_063.jpg,5,1.0381
6,1,2,art,art_063.jpg,6,2.2213
6,2,6,art,art_063.jpg,6,0.5439
7,1,97,art,art_063.jpg,1,0.8159
7,2,107,art,art_063.jpg,1,1.1905
8,1,3,art,art_063.jpg,2,1.8486
8,2,13,art,art_063.jpg,2,1.0217
9,1,30,art,art_063.jpg,5,0.7851
9,2,8,art,art_063.jpg,5,0.9155
10,1,102,art,art_063.jpg,4,1.4082
10,2,80,art,art_063.jpg,4,1.1759
11,1,18,art,art_063.jpg,2,0.8465
11,2,68,art,art_063.jpg,1,0.9744
12,1,42,art,art_063.jpg,4,0.5517
12,2,92,art,art_063.jpg,2,0.9
13,1,85,art,art_063.jpg,1,0.9493
13,2,54,art,art_063.jpg,1,0.8807
14,1,56,art,art_063.jpg,2,0.5531
14,2,25,art,art_063.jpg,2,0.85
15,1,36,art,art_063.jpg,4,0.7818
15,2,104,art,art_063.jpg,2,0.6109
16,1,6,art,art_063.jpg,2,4.7018
16,2,74,art,art_063.jpg,2,0.8572
17,1,97,art,art_063.jpg,3,0.7771
17,2,20,art,art_063.jpg,2,2.3922
18,1,90,art,art_063.jpg,6,0.8506
18,2,13,art,art_063.jpg,6,0.9054
19,1,12,art,art_063.jpg,4,0.667
19,2,38,art,art_063.jpg,5,0.9089
20,1,72,art,art_063.jpg,1,0.8714
20,2,98,art,art_063.jpg,1,1.3524
21,1,7,art,art_063.jpg,6,0.987
21,2,33,art,art_063.jpg,5,0.8401
22,1,77,art,art_063.jpg,4,2.4145
22,2,103,art,art_063.jpg,6,1.2508
23,1,73,art,art_063.jpg,3,2.0165
23,2,87,art,art_063.jpg,2,1.1794
24,1,23,art,art_063.jpg,2,0.6619
24,2,37,art,art_063.jpg,1,1.0883
1,1,51,art,art_028.jpg,5,1.3397
1,2,88,art,art_028.jpg,6,2.9665
2,1,52,art,art_028.jpg,3,3.6143
2,2,14,art,art_028.jpg,2,1.6476
3,1,72,art,art_028.jpg,3,0.8544
3,2,35,art,art_028.jpg,3,1.0513
4,1,75,art,art_028.jpg,3,1.8858
4,2,38,art,art_028.jpg,4,0.7452
5,1,4,art,art_028.jpg,1,1.0904
5,2,17,art,art_028.jpg,1,1.6046
6,1,93,art,art_028.jpg,5,0.7721
6,2,106,art,art_028.jpg,4,2.0281
7,1,11,art,art_028.jpg,5,0.8829
7,2,2,art,art_028.jpg,3,1.5686
8,1,108,art,art_028.jpg,2,0.8034
8,2,99,art,art_028.jpg,3,0.6767
9,1,31,art,art_028.jpg,6,2.5922
9,2,38,art,art_028.jpg,6,0.904
10,1,72,art,art_028.jpg,3,0.5289
10,2,79,art,art_028.jpg,3,0.79
11,1,45,art,art_028.jpg,3,0.6005
11,2,32,art,art_028.jpg,1,1.4952
12,1,78,art,art_028.jpg,4,0.5227
12,2,65,art,art_028.jpg,4,0.6621
13,1,80,art,art_028.jpg,1,0.6348
13,2,37,art,art_028.jpg,1,0.6798
14,1,73,art,art_028.jpg,2,0.5901
14,2,30,art,art_028.jpg,2,0.8016
15,1,43,art,art_028.jpg,5,1.7922
15,2,31,art,art_028.jpg,5,0.7722
16,1,79,art,art_028.jpg,2,0.6496
16,2,67,art,art_028.jpg,2,1.5604
17,1,24,art,art_028.jpg,4,0.6607
17,2,16,art,art_028.jpg,4,2.1065
18,1,94,art,art_028.jpg,5,0.8025
18,2,86,art,art_028.jpg,4,0.856
19,1,2,art,art_028.jpg,1,1.6282
19,2,32,art,art_028.jpg,2,0.6075
20,1,78,art,art_028.jpg,6,1.099
20,2,108,art,art_028.jpg,7,0.8485
21,1,67,art,art_028.jpg,5,0.8671
21,2,24,art,art_028.jpg,4,1.5051
22,1,86,art,art_028.jpg,2,0.8968
22,2,43,art,art_028.jpg,2,0.8549
23,1,93,art,art_028.jpg,4,1.2099
23,2,39,art,art_028.jpg,2,0.7595
24,1,71,art,art_028.jpg,1,1.9248
24,2,17,art,art_028.jpg,1,1.317
1,1,52,art,art_097.jpg,3,0.9716
1,2,60,art,art_097.jpg,6,1.8375
2,1,2,art,art_097.jpg,3,4.7494
2,2,109,art,art_097.jpg,3,0.8203
3,1,104,art,art_097.jpg,1,0.8071
3,2,27,art,art_097.jpg,1,1.0191
4,1,83,art,art_097.jpg,3,1.6484
4,2,6,art,art_097.jpg,2,1.4492
5,1,35,art,art_097.jpg,1,0.6699
5,2,88,art,art_097.jpg,1,1.4789
6,1,22,art,art_097.jpg,1,4.1119
6,2,75,art,art_097.jpg,2,2.1481
7,1,66,art,art_097.jpg,4,0.7726
7,2,100,art,art_097.jpg,4,0.6479
8,1,10,art,art_097.jpg,4,1.8919
8,2,44,art,art_097.jpg,3,0.7203
9,1,27,art,art_097.jpg,5,1.0726
9,2,64,art,art_097.jpg,6,0.6247
10,1,46,art,art_097.jpg,4,0.8259
10,2,83,art,art_097.jpg,3,0.4885
11,1,24,art,art_097.jpg,3,0.8353
11,2,17,art,art_097.jpg,2,2.3642
12,1,93,art,art_097.jpg,4,0.6983
12,2,86,art,art_097.jpg,4,0.6934
13,1,64,art,art_097.jpg,7,0.8291
13,2,46,art,art_097.jpg,6,0.8809
14,1,64,art,art_097.jpg,7,0.5929
14,2,46,art,art_097.jpg,7,0.6952
15,1,9,art,art_097.jpg,3,1.1032
15,2,21,art,art_097.jpg,2,0.6649
16,1,89,art,art_097.jpg,3,2.5519
16,2,101,art,art_097.jpg,2,0.6656
17,1,79,art,art_097.jpg,2,1.6188
17,2,87,art,art_097.jpg,3,0.7878
18,1,23,art,art_097.jpg,6,2.5413
18,2,31,art,art_097.jpg,6,0.7537
19,1,86,art,art_097.jpg,4,0.5247
19,2,2,art,art_097.jpg,5,0.6145
20,1,108,art,art_097.jpg,5,1.5376
20,2,24,art,art_097.jpg,5,1.1839
21,1,105,art,art_097.jpg,5,1.0066
21,2,86,art,art_097.jpg,5,0.9924
22,1,24,art,art_097.jpg,5,0.9538
22,2,5,art,art_097.jpg,5,1.0593
23,1,87,art,art_097.jpg,4,0.8183
23,2,12,art,art_097.jpg,4,1.6271
24,1,98,art,art_097.jpg,4,0.7454
24,2,23,art,art_097.jpg,4,0.74
1,1,53,art,art_068.jpg,5,0.6075
1,2,17,art,art_068.jpg,4,1.1954
2,1,73,art,art_068.jpg,6,1.5532
2,2,61,art,art_068.jpg,6,0.9994
3,1,40,art,art_068.jpg,2,0.7993
3,2,1,art,art_068.jpg,2,1.0172
4,1,109,art,art_068.jpg,4,0.8658
4,2,70,art,art_068.jpg,5,0.6166
5,1,32,art,art_068.jpg,5,0.7307
5,2,29,art,art_068.jpg,5,0.9948
6,1,81,art,art_068.jpg,6,0.8412
6,2,78,art,art_068.jpg,3,0.6743
7,1,14,art,art_068.jpg,7,1.4433
7,2,51,art,art_068.jpg,7,0.9277
8,1,59,art,art_068.jpg,5,1.1339
8,2,96,art,art_068.jpg,5,0.7004
9,1,74,art,art_068.jpg,5,0.8213
9,2,53,art,art_068.jpg,6,0.976
10,1,57,art,art_068.jpg,4,0.8174
10,2,36,art,art_068.jpg,4,0.448
11,1,3,art,art_068.jpg,7,0.9625
11,2,65,art,art_068.jpg,7,1.0825
12,1,45,art,art_068.jpg,7,0.8082
12,2,107,art,art_068.jpg,6,0.6086
13,1,63,art,art_068.jpg,6,0.5552
13,2,47,art,art_068.jpg,6,1.0347
14,1,63,art,art_068.jpg,6,0.7322
14,2,47,art,art_068.jpg,5,0.6038
15,1,59,art,art_068.jpg,3,0.5925
15,2,26,art,art_068.jpg,3,1.8715
16,1,84,art,art_068.jpg,2,0.6728
16,2,51,art,art_068.jpg,2,0.7526
17,1,3,art,art_068.jpg,4,1.9318
17,2,52,art,art_068.jpg,3,0.9401
18,1,58,art,art_068.jpg,6,0.7954
18,2,107,art,art_068.jpg,6,0.72
19,1,62,art,art_068.jpg,4,0.7062
19,2,7,art,art_068.jpg,3,0.5522
20,1,103,art,art_068.jpg,4,0.8875
20,2,48,art,art_068.jpg,4,0.8462
21,1,21,art,art_068.jpg,5,0.8614
21,2,64,art,art_068.jpg,5,0.6797
22,1,46,art,art_068.jpg,3,1.0662
22,2,89,art,art_068.jpg,3,1.2544
23,1,32,art,art_068.jpg,6,1.5819
23,2,72,art,art_068.jpg,5,1.1611
24,1,38,art,art_068.jpg,6,0.7791
24,2,78,art,art_068.jpg,5,0.8525
1,1,54,art,art_014.jpg,3,0.6395
1,2,35,art,art_014.jpg,4,2.1026
2,1,33,art,art_014.jpg,3,0.9543
2,2,7,art,art_014.jpg,2,1.7778
3,1,37,art,art_014.jpg,1,1.1679
3,2,34,art,art_014.jpg,1,0.8332
4,1,76,art,art_014.jpg,5,1.7145
4,2,73,art,art_014.jpg,4,0.3797
5,1,36,art,art_014.jpg,1,0.7434
5,2,44,art,art_014.jpg,2,1.9695
6,1,66,art,art_014.jpg,4,0.7751
6,2,74,art,art_014.jpg,5,5.6267
7,1,21,art,art_014.jpg,4,1.4893
7,2,1,art,art_014.jpg,1,0.9716
8,1,109,art,art_014.jpg,2,1.192
8,2,89,art,art_014.jpg,2,0.5582
9,1,24,art,art_014.jpg,5,0.6294
9,2,25,art,art_014.jpg,4,0.7114
10,1,85,art,art_014.jpg,2,1.0674
10,2,86,art,art_014.jpg,1,0.5209
11,1,19,art,art_014.jpg,1,1.6353
11,2,23,art,art_014.jpg,1,1.4807
12,1,87,art,art_014.jpg,5,0.7109
12,2,91,art,art_014.jpg,3,1.2685
13,1,49,art,art_014.jpg,1,0.7927
13,2,79,art,art_014.jpg,1,1.0879
14,1,31,art,art_014.jpg,3,0.7334
14,2,61,art,art_014.jpg,2,0.6235
15,1,46,art,art_014.jpg,3,0.6835
15,2,18,art,art_014.jpg,3,1.3148
16,1,92,art,art_014.jpg,2,1.3688
16,2,64,art,art_014.jpg,3,0.7709
17,1,107,art,art_014.jpg,2,0.7147
17,2,24,art,art_014.jpg,3,0.7609
18,1,86,art,art_014.jpg,3,0.8127
18,2,3,art,art_014.jpg,2,0.8425
19,1,44,art,art_014.jpg,1,0.9
19,2,19,art,art_014.jpg,2,1.2272
20,1,91,art,art_014.jpg,5,0.9288
20,2,66,art,art_014.jpg,7,1.0328
21,1,70,art,art_014.jpg,2,0.7133
21,2,44,art,art_014.jpg,2,1.6033
22,1,66,art,art_014.jpg,2,1.1227
22,2,40,art,art_014.jpg,2,0.617
23,1,7,art,art_014.jpg,5,0.8999
23,2,7,art,art_014.jpg,5,0.9504
24,1,103,art,art_014.jpg,1,0.6166
24,2,103,art,art_014.jpg,1,1.5604
1,1,55,art,art_006.jpg,4,0.6725
1,2,41,art,art_006.jpg,4,2.5126
2,1,16,art,art_006.jpg,5,0.8684
2,2,76,art,art_006.jpg,3,1.949
3,1,88,art,art_006.jpg,6,0.6416
3,2,55,art,art_006.jpg,6,0.8665
4,1,55,art,art_006.jpg,6,0.9415
4,2,22,art,art_006.jpg,4,0.8905
5,1,47,art,art_006.jpg,2,0.6149
5,2,75,art,art_006.jpg,1,0.9166
6,1,35,art,art_006.jpg,6,1.0723
6,2,63,art,art_006.jpg,5,6.1873
7,1,73,art,art_006.jpg,2,0.8957
7,2,47,art,art_006.jpg,1,1.0207
8,1,63,art,art_006.jpg,2,2.038
8,2,37,art,art_006.jpg,3,0.7615
9,1,79,art,art_006.jpg,7,0.6719
9,2,40,art,art_006.jpg,6,0.5026
10,1,70,art,art_006.jpg,6,0.6584
10,2,31,art,art_006.jpg,5,0.9392
11,1,31,art,art_006.jpg,7,1.7543
11,2,77,art,art_006.jpg,3,1.4269
12,1,33,art,art_006.jpg,6,0.72
12,2,79,art,art_006.jpg,5,0.7995
13,1,93,art,art_006.jpg,2,1.4836
13,2,94,art,art_006.jpg,1,0.7273
14,1,16,art,art_006.jpg,6,3.1841
14,2,17,art,art_006.jpg,6,0.9812
15,1,28,art,art_006.jpg,6,0.8354
15,2,32,art,art_006.jpg,4,0.5771
16,1,78,art,art_006.jpg,4,0.8798
16,2,82,art,art_006.jpg,3,1.2672
17,1,86,art,art_006.jpg,4,0.9314
17,2,49,art,art_006.jpg,4,0.6996
18,1,61,art,art_006.jpg,7,0.8305
18,2,24,art,art_006.jpg,7,0.8813
19,1,51,art,art_006.jpg,5,0.7194
19,2,23,art,art_006.jpg,5,0.7366
20,1,87,art,art_006.jpg,6,0.8782
20,2,59,art,art_006.jpg,7,0.6906
21,1,72,art,art_006.jpg,6,0.8824
21,2,92,art,art_006.jpg,3,3.9792
22,1,18,art,art_006.jpg,4,0.6884
22,2,38,art,art_006.jpg,5,0.8212
23,1,15,art,art_006.jpg,6,0.9195
23,2,6,art,art_006.jpg,5,0.8096
24,1,104,art,art_006.jpg,1,0.896
24,2,95,art,art_006.jpg,1,1.216
1,1,56,art,art_052.jpg,6,20.114
1,2,61,art,art_052.jpg,3,0.7615
2,1,106,art,art_052.jpg,5,1.4035
2,2,52,art,art_052.jpg,5,0.8571
3,1,93,art,art_052.jpg,5,0.6939
3,2,71,art,art_052.jpg,5,0.9179
4,1,39,art,art_052.jpg,3,0.4852
4,2,17,art,art_052.jpg,4,3.6105
5,1,103,art,art_052.jpg,4,0.6844
5,2,103,art,art_052.jpg,2,2.403
6,1,7,art,art_052.jpg,7,0.9058
6,2,7,art,art_052.jpg,6,1.879
7,1,105,art,art_052.jpg,6,1.166
7,2,83,art,art_052.jpg,6,0.8423
8,1,27,art,art_052.jpg,6,0.8395
8,2,5,art,art_052.jpg,6,1.0298
9,1,50,art,art_052.jpg,5,0.7062
9,2,20,art,art_052.jpg,4,0.5017
10,1,90,art,art_052.jpg,5,0.4958
10,2,60,art,art_052.jpg,4,3.9021
11,1,103,art,art_052.jpg,6,0.7315
11,2,31,art,art_052.jpg,4,5.7023
12,1,79,art,art_052.jpg,4,0.9431
12,2,7,art,art_052.jpg,3,1.5879
13,1,53,art,art_052.jpg,7,0.817
13,2,19,art,art_052.jpg,7,0.8686
14,1,91,art,art_052.jpg,5,0.6001
14,2,57,art,art_052.jpg,5,0.7864
15,1,42,art,art_052.jpg,5,0.7235
15,2,40,art,art_052.jpg,5,0.5603
16,1,70,art,art_052.jpg,5,0.6064
16,2,68,art,art_052.jpg,2,0.6107
17,1,11,art,art_052.jpg,5,2.0552
17,2,77,art,art_052.jpg,6,1.5298
18,1,33,art,art_052.jpg,4,0.9921
18,2,99,art,art_052.jpg,3,1.3569
19,1,102,art,art_052.jpg,7,0.9335
19,2,11,art,art_052.jpg,7,1.2395
20,1,99,art,art_052.jpg,7,1.6813
20,2,8,art,art_052.jpg,6,1.601
21,1,17,art,art_052.jpg,4,0.9481
21,2,18,art,art_052.jpg,5,1.0118
22,1,92,art,art_052.jpg,6,0.6311
22,2,93,art,art_052.jpg,6,0.7962
23,1,89,art,art_052.jpg,7,1.1269
23,2,44,art,art_052.jpg,7,0.8176
24,1,66,art,art_052.jpg,4,1.0054
24,2,21,art,art_052.jpg,4,1.3598
1,1,57,art,art_033.jpg,5,1.0781
1,2,76,art,art_033.jpg,5,1.1458
2,1,56,art,art_033.jpg,4,1.4417
2,2,89,art,art_033.jpg,3,1.3364
3,1,106,art,art_033.jpg,2,0.867
3,2,67,art,art_033.jpg,1,0.8112
4,1,43,art,art_033.jpg,6,0.565
4,2,4,art,art_033.jpg,5,1.1304
5,1,77,art,art_033.jpg,6,0.756
5,2,40,art,art_033.jpg,5,1.0568
6,1,70,art,art_033.jpg,6,0.8502
6,2,33,art,art_033.jpg,5,3.1885
7,1,59,art,art_033.jpg,2,0.6037
7,2,105,art,art_033.jpg,1,1.7727
8,1,5,art,art_033.jpg,2,1.0801
8,2,51,art,art_033.jpg,1,1.1714
9,1,29,art,art_033.jpg,5,0.5247
9,2,85,art,art_033.jpg,5,2.5838
10,1,25,art,art_033.jpg,5,0.4912
10,2,81,art,art_033.jpg,6,0.6156
11,1,92,art,art_033.jpg,3,1.0682
11,2,43,art,art_033.jpg,2,1.2515
12,1,67,art,art_033.jpg,4,0.6687
12,2,18,art,art_033.jpg,4,1.0239
13,1,20,art,art_033.jpg,5,2.6571
13,2,66,art,art_033.jpg,1,0.8083
14,1,44,art,art_033.jpg,5,0.7463
14,2,90,art,art_033.jpg,5,1.161
15,1,41,art,art_033.jpg,5,0.4683
15,2,86,art,art_033.jpg,4,0.4165
16,1,24,art,art_033.jpg,2,0.6167
16,2,69,art,art_033.jpg,1,0.6156
17,1,39,art,art_033.jpg,4,0.776
17,2,69,art,art_033.jpg,4,0.6429
18,1,41,art,art_033.jpg,6,0.9617
18,2,71,art,art_033.jpg,4,0.6957
19,1,34,art,art_033.jpg,1,1.0225
19,2,34,art,art_033.jpg,2,0.6328
20,1,76,art,art_033.jpg,7,1.2975
20,2,76,art,art_033.jpg,7,0.7772
21,1,65,art,art_033.jpg,3,0.7161
21,2,43,art,art_033.jpg,2,0.6814
22,1,67,art,art_033.jpg,5,0.6395
22,2,45,art,art_033.jpg,4,0.4108
23,1,68,art,art_033.jpg,4,0.964
23,2,41,art,art_033.jpg,4,0.6542
24,1,69,art,art_033.jpg,1,0.7686
24,2,42,art,art_033.jpg,1,0.7266
1,1,58,art,art_085.jpg,6,1.1524
1,2,83,art,art_085.jpg,6,1.6851
2,1,69,art,art_085.jpg,6,1.6414
2,2,46,art,art_085.jpg,6,1.2166
3,1,95,art,art_085.jpg,1,0.9009
3,2,82,art,art_085.jpg,1,0.792
4,1,28,art,art_085.jpg,6,0.7058
4,2,15,art,art_085.jpg,6,0.8254
5,1,94,art,art_085.jpg,1,1.1707
5,2,49,art,art_085.jpg,2,0.8124
6,1,61,art,art_085.jpg,7,0.7294
6,2,16,art,art_085.jpg,6,1.0843
7,1,71,art,art_085.jpg,3,0.7639
7,2,37,art,art_085.jpg,4,0.6558
8,1,73,art,art_085.jpg,5,1.162
8,2,39,art,art_085.jpg,4,0.471
9,1,76,art,art_085.jpg,7,0.6232
9,2,22,art,art_085.jpg,7,0.7802
10,1,88,art,art_085.jpg,4,0.62
10,2,34,art,art_085.jpg,3,0.9318
11,1,6,art,art_085.jpg,2,1.5127
11,2,35,art,art_085.jpg,2,1.5631
12,1,75,art,art_085.jpg,6,0.6131
12,2,104,art,art_085.jpg,4,1.6768
13,1,66,art,art_085.jpg,7,0.7666
13,2,51,art,art_085.jpg,7,0.5683
14,1,59,art,art_085.jpg,6,0.7696
14,2,44,art,art_085.jpg,7,1.1258
15,1,109,art,art_085.jpg,7,0.6876
15,2,44,art,art_085.jpg,7,0.7413
16,1,66,art,art_085.jpg,3,0.8038
16,2,1,art,art_085.jpg,2,1.0434
17,1,35,art,art_085.jpg,5,0.7755
17,2,75,art,art_085.jpg,3,1.1497
18,1,35,art,art_085.jpg,5,2.2763
18,2,75,art,art_085.jpg,2,0.7106
19,1,17,art,art_085.jpg,5,0.5805
19,2,1,art,art_085.jpg,4,1.063
20,1,109,art,art_085.jpg,6,4.2729
20,2,93,art,art_085.jpg,5,7.452
21,1,25,art,art_085.jpg,5,0.6748
21,2,29,art,art_085.jpg,5,2.0614
22,1,81,art,art_085.jpg,5,0.4894
22,2,85,art,art_085.jpg,6,0.8413
23,1,48,art,art_085.jpg,6,0.9175
23,2,54,art,art_085.jpg,6,0.7946
24,1,56,art,art_085.jpg,3,0.7478
24,2,62,art,art_085.jpg,4,2.05
1,1,59,art,art_049.jpg,5,0.8314
1,2,56,art,art_049.jpg,5,2.6019
2,1,88,art,art_049.jpg,2,1.6986
2,2,91,art,art_049.jpg,3,0.9983
3,1,87,art,art_049.jpg,1,0.8584
3,2,77,art,art_049.jpg,1,0.8163
4,1,33,art,art_049.jpg,5,0.6306
4,2,23,art,art_049.jpg,4,11.327
5,1,40,art,art_049.jpg,5,0.9528
5,2,94,art,art_049.jpg,6,0.9764
6,1,16,art,art_049.jpg,3,1.2692
6,2,70,art,art_049.jpg,5,5.7699
7,1,28,art,art_049.jpg,2,0.779
7,2,52,art,art_049.jpg,1,1.0844
8,1,58,art,art_049.jpg,2,0.8358
8,2,82,art,art_049.jpg,2,0.5872
9,1,1,art,art_049.jpg,6,0.7613
9,2,77,art,art_049.jpg,6,0.6721
10,1,33,art,art_049.jpg,4,0.5299
10,2,109,art,art_049.jpg,5,0.632
11,1,93,art,art_049.jpg,2,0.7156
11,2,22,art,art_049.jpg,4,0.5588
12,1,88,art,art_049.jpg,4,0.6323
12,2,17,art,art_049.jpg,4,0.4968
13,1,1,art,art_049.jpg,5,2.7179
13,2,65,art,art_049.jpg,6,0.5905
14,1,45,art,art_049.jpg,7,0.6413
14,2,109,art,art_049.jpg,7,0.7161
15,1,23,art,art_049.jpg,4,0.7829
15,2,101,art,art_049.jpg,4,0.9516
16,1,9,art,art_049.jpg,5,0.6828
16,2,87,art,art_049.jpg,5,1.0431
17,1,8,art,art_049.jpg,4,0.8571
17,2,30,art,art_049.jpg,5,0.8766
18,1,80,art,art_049.jpg,5,1.4352
18,2,102,art,art_049.jpg,2,0.8671
19,1,67,art,art_049.jpg,3,0.7642
19,2,98,art,art_049.jpg,2,1.5181
20,1,12,art,art_049.jpg,7,1.0526
20,2,43,art,art_049.jpg,7,0.8129
21,1,100,art,art_049.jpg,3,13.9914
21,2,62,art,art_049.jpg,5,0.6943
22,1,48,art,art_049.jpg,6,0.8147
22,2,10,art,art_049.jpg,6,0.7441
23,1,19,art,art_049.jpg,4,3.0111
23,2,18,art,art_049.jpg,3,0.8766
24,1,92,art,art_049.jpg,1,0.7949
24,2,91,art,art_049.jpg,1,0.7869
1,1,60,art,art_021.jpg,3,0.9756
1,2,33,art,art_021.jpg,5,6.2384
2,1,89,art,art_021.jpg,5,1.5626
2,2,13,art,art_021.jpg,5,1.0562
3,1,3,art,art_021.jpg,6,0.9379
3,2,93,art,art_021.jpg,7,1.3235
4,1,17,art,art_021.jpg,2,0.6306
4,2,107,art,art_021.jpg,7,0.6328
5,1,66,art,art_021.jpg,4,0.5223
5,2,55,art,art_021.jpg,5,1.4672
6,1,55,art,art_021.jpg,1,1.0711
6,2,44,art,art_021.jpg,3,1.3195
7,1,83,art,art_021.jpg,1,1.3192
7,2,70,art,art_021.jpg,1,1.3507
8,1,40,art,art_021.jpg,3,1.4155
8,2,27,art,art_021.jpg,2,0.9468
9,1,7,art,art_021.jpg,5,1.1123
9,2,61,art,art_021.jpg,6,0.9839
10,1,49,art,art_021.jpg,4,0.4021
10,2,103,art,art_021.jpg,4,0.5084
11,1,46,art,art_021.jpg,2,0.7543
11,2,71,art,art_021.jpg,3,0.6257
12,1,39,art,art_021.jpg,6,0.5326
12,2,64,art,art_021.jpg,5,0.463
13,1,83,art,art_021.jpg,3,2.0967
13,2,106,art,art_021.jpg,3,0.684
14,1,4,art,art_021.jpg,7,0.5337
14,2,27,art,art_021.jpg,7,0.8194
15,1,90,art,art_021.jpg,2,1.0339
15,2,1,art,art_021.jpg,2,1.0422
16,1,109,art,art_021.jpg,4,0.7763
16,2,20,art,art_021.jpg,4,0.9392
17,1,6,art,art_021.jpg,7,1.2262
17,2,35,art,art_021.jpg,7,1.0602
18,1,75,art,art_021.jpg,1,0.8332
18,2,104,art,art_021.jpg,1,0.6735
19,1,70,art,art_021.jpg,3,1.3758
19,2,70,art,art_021.jpg,4,0.6062
20,1,40,art,art_021.jpg,5,0.8253
20,2,40,art,art_021.jpg,2,0.9885
21,1,54,art,art_021.jpg,2,4.452
21,2,13,art,art_021.jpg,2,4.3557
22,1,97,art,art_021.jpg,3,1.0676
22,2,56,art,art_021.jpg,3,0.5328
23,1,91,art,art_021.jpg,3,1.3708
23,2,22,art,art_021.jpg,3,1.1727
24,1,88,art,art_021.jpg,5,0.7391
24,2,19,art,art_021.jpg,6,1.0279
1,1,61,art,art_057.jpg,4,1.9404
1,2,107,art,art_057.jpg,3,1.3104
2,1,27,art,art_057.jpg,3,2.1509
2,2,31,art,art_057.jpg,4,0.6884
3,1,82,art,art_057.jpg,3,0.8797
3,2,47,art,art_057.jpg,3,0.9038
4,1,63,art,art_057.jpg,4,0.5309
4,2,28,art,art_057.jpg,4,1.8893
5,1,46,art,art_057.jpg,3,0.9089
5,2,7,art,art_057.jpg,1,1.4126
6,1,103,art,art_057.jpg,6,0.859
6,2,64,art,art_057.jpg,5,3.3031
7,1,85,art,art_057.jpg,1,1.931
7,2,36,art,art_057.jpg,1,0.8564
8,1,74,art,art_057.jpg,5,0.9082
8,2,25,art,art_057.jpg,5,0.7056
9,1,106,art,art_057.jpg,4,0.5462
9,2,62,art,art_057.jpg,6,0.9753
10,1,48,art,art_057.jpg,4,0.5338
10,2,4,art,art_057.jpg,4,0.4717
11,1,108,art,art_057.jpg,4,0.8888
11,2,74,art,art_057.jpg,1,1.256
12,1,36,art,art_057.jpg,4,0.819
12,2,2,art,art_057.jpg,4,0.4638
13,1,62,art,art_057.jpg,4,0.5934
13,2,88,art,art_057.jpg,1,0.9379
14,1,22,art,art_057.jpg,2,0.626
14,2,48,art,art_057.jpg,4,1.7765
15,1,76,art,art_057.jpg,3,0.6863
15,2,43,art,art_057.jpg,2,0.6353
16,1,67,art,art_057.jpg,2,0.6561
16,2,34,art,art_057.jpg,2,0.6559
17,1,56,art,art_057.jpg,4,0.8558
17,2,8,art,art_057.jpg,4,0.6266
18,1,102,art,art_057.jpg,5,0.9249
18,2,54,art,art_057.jpg,4,0.8543
19,1,94,art,art_057.jpg,3,2.3722
19,2,108,art,art_057.jpg,5,0.8901
20,1,2,art,art_057.jpg,1,1.0291
20,2,16,art,art_057.jpg,4,1.4496
21,1,103,art,art_057.jpg,5,0.6907
21,2,17,art,art_057.jpg,5,3.6941
22,1,93,art,art_057.jpg,6,0.7451
22,2,7,art,art_057.jpg,5,0.6101
23,1,56,art,art_057.jpg,3,1.1134
23,2,56,art,art_057.jpg,3,0.9557
24,1,54,art,art_057.jpg,1,0.7036
24,2,54,art,art_057.jpg,2,0.7773
1,1,62,art,art_062.jpg,6,0.956
1,2,40,art,art_062.jpg,6,0.7822
2,1,4,art,art_062.jpg,6,3.3257
2,2,68,art,art_062.jpg,5,0.9189
3,1,21,art,art_062.jpg,5,0.7168
3,2,104,art,art_062.jpg,5,0.589
4,1,6,art,art_062.jpg,6,0.6892
4,2,89,art,art_062.jpg,4,0.5223
5,1,78,art,art_062.jpg,2,0.7897
5,2,98,art,art_062.jpg,2,1.3387
6,1,12,art,art_062.jpg,7,0.9358
6,2,32,art,art_062.jpg,7,0.9546
7,1,68,art,art_062.jpg,4,1.4272
7,2,48,art,art_062.jpg,1,1.0519
8,1,62,art,art_062.jpg,4,0.5691
8,2,42,art,art_062.jpg,3,0.6979
9,1,8,art,art_062.jpg,4,0.8105
9,2,4,art,art_062.jpg,5,1.0327
10,1,106,art,art_062.jpg,4,0.3983
10,2,102,art,art_062.jpg,4,0.6824
11,1,88,art,art_062.jpg,5,1.5069
11,2,40,art,art_062.jpg,6,1.232
12,1,70,art,art_062.jpg,6,0.7576
12,2,22,art,art_062.jpg,6,0.5719
13,1,37,art,art_062.jpg,3,1.0259
13,2,100,art,art_062.jpg,5,0.6348
14,1,10,art,art_062.jpg,6,0.6124
14,2,73,art,art_062.jpg,5,0.491
15,1,64,art,art_062.jpg,4,1.7225
15,2,28,art,art_062.jpg,5,0.4679
16,1,82,art,art_062.jpg,3,0.762
16,2,46,art,art_062.jpg,3,0.7905
17,1,98,art,art_062.jpg,4,2.0723
17,2,12,art,art_062.jpg,4,0.6857
18,1,98,art,art_062.jpg,6,0.9355
18,2,12,art,art_062.jpg,6,0.8446
19,1,7,art,art_062.jpg,4,0.841
19,2,72,art,art_062.jpg,4,0.6262
20,1,38,art,art_062.jpg,5,1.1203
20,2,103,art,art_062.jpg,5,0.9784
21,1,73,art,art_062.jpg,5,0.7002
21,2,83,art,art_062.jpg,5,0.6949
22,1,27,art,art_062.jpg,2,0.7198
22,2,37,art,art_062.jpg,2,0.8955
23,1,47,art,art_062.jpg,5,1.5952
23,2,30,art,art_062.jpg,4,0.6715
24,1,80,art,art_062.jpg,3,0.632
24,2,63,art,art_062.jpg,3,1.0552
1,1,63,art,art_108.jpg,3,3.3674
1,2,15,art,art_108.jpg,4,2.3039
2,1,28,art,art_108.jpg,6,1.329
2,2,34,art,art_108.jpg,5,1.1064
3,1,36,art,art_108.jpg,5,1.2113
3,2,90,art,art_108.jpg,6,1.0133
4,1,20,art,art_108.jpg,4,0.8899
4,2,74,art,art_108.jpg,2,0.5707
5,1,57,art,art_108.jpg,3,0.6855
5,2,79,art,art_108.jpg,2,3.4417
6,1,31,art,art_108.jpg,7,0.9628
6,2,53,art,art_108.jpg,6,0.8308
7,1,22,art,art_108.jpg,7,1.8302
7,2,38,art,art_108.jpg,7,1.6371
8,1,72,art,art_108.jpg,4,0.6404
8,2,88,art,art_108.jpg,3,1.0493
9,1,2,art,art_108.jpg,6,0.7904
9,2,106,art,art_108.jpg,6,0.8032
10,1,4,art,art_108.jpg,5,0.796
10,2,108,art,art_108.jpg,4,0.5716
11,1,10,art,art_108.jpg,6,0.8014
11,2,79,art,art_108.jpg,7,1.0258
12,1,31,art,art_108.jpg,5,0.745
12,2,100,art,art_108.jpg,3,0.7753
13,1,76,art,art_108.jpg,2,3.4121
13,2,57,art,art_108.jpg,1,0.916
14,1,53,art,art_108.jpg,4,0.4113
14,2,34,art,art_108.jpg,4,0.5263
15,1,80,art,art_108.jpg,5,0.561
15,2,19,art,art_108.jpg,5,0.5172
16,1,91,art,art_108.jpg,1,0.6657
16,2,30,art,art_108.jpg,1,0.808
17,1,96,art,art_108.jpg,4,0.8392
17,2,4,art,art_108.jpg,3,0.9652
18,1,106,art,art_108.jpg,4,0.68
18,2,14,art,art_108.jpg,3,0.5204
19,1,39,art,art_108.jpg,3,0.6793
19,2,15,art,art_108.jpg,4,2.3384
20,1,95,art,art_108.jpg,1,1.1776
20,2,71,art,art_108.jpg,2,0.8481
21,1,62,art,art_108.jpg,4,0.873
21,2,3,art,art_108.jpg,5,0.9536
22,1,107,art,art_108.jpg,4,0.5324
22,2,48,art,art_108.jpg,4,0.5096
23,1,61,art,art_108.jpg,5,2.4304
23,2,49,art,art_108.jpg,2,0.8457
24,1,61,art,art_108.jpg,2,0.8723
24,2,49,art,art_108.jpg,1,2.2374
1,1,64,art,art_083.jpg,6,1.8692
1,2,92,art,art_083.jpg,3,1.8626
2,1,65,art,art_083.jpg,6,0.9342
2,2,69,art,art_083.jpg,4,0.9369
3,1,12,art,art_083.jpg,1,1.0394
3,2,44,art,art_083.jpg,1,1.1692
4,1,66,art,art_083.jpg,6,0.6914
4,2,98,art,art_083.jpg,3,0.4719
5,1,25,art,art_083.jpg,4,0.7543
5,2,71,art,art_083.jpg,2,0.8959
6,1,39,art,art_083.jpg,6,0.7676
6,2,85,art,art_083.jpg,6,0.8826
7,1,92,art,art_083.jpg,4,0.6431
7,2,80,art,art_083.jpg,2,0.8151
8,1,30,art,art_083.jpg,2,0.8162
8,2,18,art,art_083.jpg,2,0.8112
9,1,98,art,art_083.jpg,7,0.744
9,2,59,art,art_083.jpg,7,0.6441
10,1,51,art,art_083.jpg,2,0.5952
10,2,12,art,art_083.jpg,1,0.984
11,1,52,art,art_083.jpg,5,1.1778
11,2,29,art,art_083.jpg,4,0.6316
12,1,81,art,art_083.jpg,3,0.7474
12,2,58,art,art_083.jpg,5,0.4836
13,1,12,art,art_083.jpg,7,0.747
13,2,76,art,art_083.jpg,7,0.8071
14,1,34,art,art_083.jpg,4,0.4886
14,2,98,art,art_083.jpg,2,4.8395
15,1,31,art,art_083.jpg,6,0.8231
15,2,67,art,art_083.jpg,5,0.615
16,1,43,art,art_083.jpg,5,0.912
16,2,79,art,art_083.jpg,4,0.5682
17,1,58,art,art_083.jpg,5,0.7982
17,2,106,art,art_083.jpg,6,0.5839
18,1,4,art,art_083.jpg,4,0.9094
18,2,52,art,art_083.jpg,5,0.6237
19,1,109,art,art_083.jpg,5,0.6491
19,2,28,art,art_083.jpg,4,0.5543
20,1,82,art,art_083.jpg,6,1.6863
20,2,1,art,art_083.jpg,5,0.7124
21,1,18,art,art_083.jpg,5,2.5317
21,2,14,art,art_083.jpg,4,2.1029
22,1,96,art,art_083.jpg,4,0.7217
22,2,92,art,art_083.jpg,3,1.5354
23,1,58,art,art_083.jpg,5,1.7519
23,2,69,art,art_083.jpg,5,1.7194
24,1,41,art,art_083.jpg,5,0.4971
24,2,52,art,art_083.jpg,4,2.5539
1,1,65,art,art_055.jpg,5,1.2412
1,2,69,art,art_055.jpg,4,1.7167
